onset	duration	trial_type	phase	probe	line_pct	response	RT	RTHold	catch	missed	problem_trial
15.502283653	3.0	Word	encoding	is	0.07	0.0	NaN	0.39137026899879857	0	0	0
22.010916402	3.0	Word	marking	is	0.07	0.0	NaN	0.39137026899879857	1	0	0
28.500924758	3.0	Word	encoding	or	0.77	0.0	NaN	0.4465395589995751	0	0	0
32.511241752	3.0	Word	marking	or	0.77	0.0	NaN	0.4465395589995751	1	0	0
40.002052465	3.0	Word	encoding	of	0.33	0.32819383259911894	1.7445005709996622	0.4108298079991073	0	0	0
44.511477899	3.0	Word	marking	of	0.33	0.32819383259911894	1.7445005709996622	0.4108298079991073	0	0	0
52.002040434	3.0	Word	encoding	he	0.11	0.11013215859030837	2.109409443999539	0.3438749859997188	0	0	0
58.011840623	3.0	Word	marking	he	0.11	0.11013215859030837	2.109409443999539	0.3438749859997188	0	0	0
67.002362448	3.0	Word	encoding	be	0.9	0.9096916299559471	2.2962648440006888	0.3858398100001068	0	0	0
74.012300887	3.0	Word	marking	be	0.9	0.9096916299559471	2.2962648440006888	0.3858398100001068	0	0	0
80.501276185	3.0	Word	encoding	do	0.57	0.0	NaN	0.43408285599980445	0	0	0
86.012764503	3.0	Word	marking	do	0.57	0.0	NaN	0.43408285599980445	1	0	0
94.501613551	3.0	Word	encoding	by	0.98	0.9955947136563876	2.0122479959991324	0.5969132840000384	0	0	0
98.513014332	3.0	Word	marking	by	0.98	0.9955947136563876	2.0122479959991324	0.5969132840000384	0	0	0
104.50186359	3.0	Word	encoding	am	0.45	0.44052863436123346	1.9424374860009266	0.5594620080009918	0	0	0
108.013398949	3.0	Word	marking	am	0.45	0.44052863436123346	1.9424374860009266	0.5594620080009918	0	0	0
117.501822247	3.0	Word	encoding	so	0.36	0.35462555066079293	1.962316342000122	0.36897328600025503	0	0	0
122.013672986	3.0	Word	marking	so	0.36	0.35462555066079293	1.962316342000122	0.36897328600025503	0	0	0
132.001411378	3.0	Word	encoding	as	0.65	0.0	NaN	0.5414813799998228	0	0	0
136.51412923	3.0	Word	marking	as	0.65	0.0	NaN	0.5414813799998228	1	0	0
144.001675239	3.0	Word	encoding	me	0.28	0.28193832599118945	2.112519026000882	0.4068467220004095	0	0	0
147.514330449	3.0	Word	marking	me	0.28	0.28193832599118945	2.112519026000882	0.4068467220004095	0	0	0
154.501794656	3.0	Word	encoding	ox	0.03	0.01762114537444934	2.229200439998749	0.7386464960000012	0	0	0
157.514581039	3.0	Word	marking	ox	0.03	0.01762114537444934	2.229200439998749	0.7386464960000012	0	0	0
164.502051337	3.0	Word	encoding	it	0.6	0.6057268722466961	1.5958709410006122	0.4263825940015522	0	0	0
168.014872346	3.0	Word	marking	it	0.6	0.6057268722466961	1.5958709410006122	0.4263825940015522	0	0	0
175.000801545	3.0	Word	encoding	my	0.21	0.2092511013215859	1.9124987839986716	0.4270319119987107	0	0	0
179.015125763	3.0	Word	marking	my	0.21	0.2092511013215859	1.9124987839986716	0.4270319119987107	0	0	0
187.001195228	3.0	Word	encoding	we	0.74	0.737885462555066	2.1779655490008736	0.46127487599915185	0	0	0
190.015442617	3.0	Word	marking	we	0.74	0.737885462555066	2.1779655490008736	0.46127487599915185	0	0	0
196.001648753	3.0	Word	encoding	if	0.85	0.8502202643171806	1.9462820459993964	0.43536538400076097	0	0	0
201.015818298	3.0	Word	marking	if	0.85	0.8502202643171806	1.9462820459993964	0.43536538400076097	0	0	0
204.0	6.0	break	break	NaN	NaN	NaN	NaN	NaN	NaN	NaN	NaN
213.001657095	3.0	Pos	encoding	74	0.74	0.76431718061674	2.1874093509995873	0.3965831719997368	0	0	0
217.016285446	3.0	Pos	marking	74	0.74	0.76431718061674	2.1874093509995873	0.3965831719997368	0	0	0
224.002259573	3.0	Pos	encoding	98	0.98	1.0	2.428948278000462	0.3604054349998478	0	0	0
227.516522568	3.0	Pos	marking	98	0.98	1.0	2.428948278000462	0.3604054349998478	0	0	0
235.00217145	3.0	Pos	encoding	65	0.65	0.7577092511013216	1.8290566710002167	0.396826158001204	0	1	0
239.000176979	3.0	Pos	marking	65	0.65	0.7577092511013216	1.8290566710002167	0.396826158001204	0	1	0
246.00147945	3.0	Pos	encoding	28	0.28	0.28854625550660795	2.1587273309996817	0.3339313510005013	0	0	0
252.500729496	3.0	Pos	marking	28	0.28	0.28854625550660795	2.1587273309996817	0.3339313510005013	0	0	0
259.001199045	3.0	Pos	encoding	60	0.6	0.0	NaN	0.443933268001274	0	0	0
263.500848638	3.0	Pos	marking	60	0.6	0.0	NaN	0.443933268001274	1	0	0
270.001677916	3.0	Pos	encoding	36	0.36	0.0	NaN	0.33046315600040543	0	0	0
275.501164875	3.0	Pos	marking	36	0.36	0.0	NaN	0.33046315600040543	1	0	0
282.501298391	3.0	Pos	encoding	33	0.33	0.30176211453744495	2.0456335020007828	0.3942046250012936	0	0	0
288.501584903	3.0	Pos	marking	33	0.33	0.30176211453744495	2.0456335020007828	0.3942046250012936	0	0	0
298.502544887	3.0	Pos	encoding	57	0.57	0.5859030837004405	1.8786231980011507	0.3817214509999758	0	0	0
302.501866958	3.0	Pos	marking	57	0.57	0.5859030837004405	1.8786231980011507	0.3817214509999758	0	0	0
308.501685855	3.0	Pos	encoding	21	0.21	0.21585903083700442	2.510538052998527	0.946591867999814	0	0	0
311.502147573	3.0	Pos	marking	21	0.21	0.21585903083700442	2.510538052998527	0.946591867999814	0	0	0
319.002235661	3.0	Pos	encoding	3	0.03	0.0	1.9789356509991194	0.3623215280003933	0	0	0
323.502484094	3.0	Pos	marking	3	0.03	0.0	1.9789356509991194	0.3623215280003933	0	0	0
330.000993156	3.0	Pos	encoding	85	0.85	0.8766519823788547	2.1759224310007994	0.3359987000003457	0	0	0
334.502970847	3.0	Pos	marking	85	0.85	0.8766519823788547	2.1759224310007994	0.3359987000003457	0	0	0
343.001753651	3.0	Pos	encoding	11	0.11	0.0	NaN	0.3113477239985514	0	0	0
346.503127327	3.0	Pos	marking	11	0.11	0.0	NaN	0.3113477239985514	1	0	0
356.002219507	3.0	Pos	encoding	7	0.07	0.11013215859030837	2.1625040769995394	0.38157115899957716	0	0	0
359.00344643	3.0	Pos	marking	7	0.07	0.11013215859030837	2.1625040769995394	0.38157115899957716	0	0	0
366.500802427	3.0	Pos	encoding	90	0.9	0.8502202643171806	2.3956978540009004	0.4081853879997652	0	0	0
370.003755974	3.0	Pos	marking	90	0.9	0.8502202643171806	2.3956978540009004	0.4081853879997652	0	0	0
379.001960152	3.0	Pos	encoding	77	0.77	0.76431718061674	2.459287134999613	0.38756470899897977	0	0	0
386.004369975	3.0	Pos	marking	77	0.77	0.76431718061674	2.459287134999613	0.38756470899897977	0	0	0
394.001741121	3.0	Pos	encoding	45	0.45	0.0	NaN	0.4084893290000764	0	0	0
399.00440773	3.0	Pos	marking	45	0.45	0.0	NaN	0.4084893290000764	1	0	0
402.0	6.0	break	break	NaN	NaN	NaN	NaN	NaN	NaN	NaN	NaN
411.00174953	3.0	Neg	encoding	-10	0.45	0.42070484581497797	1.638970378000522	0.358374671999627	0	0	0
416.005048282	3.0	Neg	marking	-10	0.45	0.42070484581497797	1.638970378000522	0.358374671999627	0	0	0
422.502320888	3.0	Neg	encoding	-94	0.03	0.030837004405286344	1.9623206299984304	0.3885487239986105	0	0	0
427.00535616	3.0	Neg	marking	-94	0.03	0.030837004405286344	1.9623206299984304	0.3885487239986105	0	0	0
434.002040492	3.0	Neg	encoding	48	0.74	0.0	NaN	0.7602107450002222	0	0	0
437.00566119	3.0	Neg	marking	48	0.74	0.0	NaN	0.7602107450002222	1	0	0
446.501465791	3.0	Neg	encoding	80	0.9	0.8832599118942731	2.3427067960001295	0.3686644739991607	0	0	0
453.50621887	3.0	Neg	marking	80	0.9	0.8832599118942731	2.3427067960001295	0.3686644739991607	0	0	0
460.501503583	3.0	Neg	encoding	30	0.65	0.6189427312775331	2.0785531500005163	0.44604860300023574	0	0	0
464.506378299	3.0	Neg	marking	30	0.65	0.6189427312775331	2.0785531500005163	0.44604860300023574	0	0	0
474.500864954	3.0	Neg	encoding	20	0.6	0.5991189427312775	2.112916990998201	0.39939218499966955	0	0	0
478.006677796	3.0	Neg	marking	20	0.6	0.5991189427312775	2.112916990998201	0.39939218499966955	0	0	0
485.500915157	3.0	Neg	encoding	-58	0.21	0.2092511013215859	1.978672134999215	0.40770773899930646	0	0	0
490.007122103	3.0	Neg	marking	-58	0.21	0.2092511013215859	1.978672134999215	0.40770773899930646	0	0	0
496.501250914	3.0	Neg	encoding	-44	0.28	0.0	NaN	0.33163049799986766	0	0	0
503.007378289	3.0	Neg	marking	-44	0.28	0.0	NaN	0.33163049799986766	1	0	0
510.502219901	3.0	Neg	encoding	14	0.57	0.0	NaN	0.40988088700032677	0	0	0
516.507853519	3.0	Neg	marking	14	0.57	0.0	NaN	0.40988088700032677	1	0	0
524.502412078	3.0	Neg	encoding	-28	0.36	0.0	NaN	0.5447744690009131	0	0	0
530.008168311	3.0	Neg	marking	-28	0.36	0.0	NaN	0.5447744690009131	1	0	0
538.500818335	3.0	Neg	encoding	-78	0.11	0.1299559471365639	2.4282948969994322	0.385913370999333	0	0	0
543.008564144	3.0	Neg	marking	-78	0.11	0.1299559471365639	2.4282948969994322	0.385913370999333	0	0	0
549.000899865	3.0	Neg	encoding	96	0.98	0.9493392070484582	2.229036897999322	0.5161060030004592	0	0	0
553.008826139	3.0	Neg	marking	96	0.98	0.9493392070484582	2.229036897999322	0.5161060030004592	0	0	0
559.501136717	3.0	Neg	encoding	70	0.85	0.8370044052863436	2.545789257999786	0.4179914340002142	0	0	0
563.00908132	3.0	Neg	marking	70	0.85	0.8370044052863436	2.545789257999786	0.4179914340002142	0	0	0
572.00142892	3.0	Neg	encoding	-34	0.33	0.30176211453744495	2.3456834000007802	0.42613859999983106	0	0	0
575.009457667	3.0	Neg	marking	-34	0.33	0.30176211453744495	2.3456834000007802	0.42613859999983106	0	0	0
582.501650074	3.0	Neg	encoding	54	0.77	0.7577092511013216	2.395120974000747	0.4216739820003568	0	0	0
586.009711343	3.0	Neg	marking	54	0.77	0.7577092511013216	2.395120974000747	0.4216739820003568	0	0	0
593.001984589	3.0	Neg	encoding	-86	0.07	0.07048458149779736	2.1789783040003385	0.3979029870006343	0	0	0
597.010013531	3.0	Neg	marking	-86	0.07	0.07048458149779736	2.1789783040003385	0.3979029870006343	0	0	0
