onset	duration	trial_type	phase	probe	line_pct	response	RT	RTHold	catch	missed	problem_trial
18.002594642	3.0	Pos	encoding	7	0.07	0.08370044052863436	1.8760495610004	0.408460925998952	0	0	0
21.015117529	3.0	Pos	marking	7	0.07	0.08370044052863436	1.8760495610004	0.408460925998952	0	0	0
27.502180088	3.0	Pos	encoding	33	0.33	0.29515418502202645	1.844457840999894	0.3498914510000759	0	0	0
32.015382041	3.0	Pos	marking	33	0.33	0.29515418502202645	1.844457840999894	0.3498914510000759	0	0	0
38.001223226	3.0	Pos	encoding	98	0.98	1.0	1.392819448001319	0.3419269490004808	0	0	0
43.015751995	3.0	Pos	marking	98	0.98	1.0	1.392819448001319	0.3419269490004808	0	0	0
49.001660734	3.0	Pos	encoding	85	0.85	0.8436123348017621	1.9871050929996272	0.3860927839996293	0	0	0
55.000824957	3.0	Pos	marking	85	0.85	0.8436123348017621	1.9871050929996272	0.3860927839996293	0	0	0
65.002587479	3.0	Pos	encoding	11	0.11	0.0	NaN	0.4456979449987557	0	0	0
68.516332078	3.0	Pos	marking	11	0.11	0.0	NaN	0.4456979449987557	1	0	0
77.002667982	3.0	Pos	encoding	3	0.03	0.0	1.5278912779995153	0.3858469339993462	0	0	0
80.016722864	3.0	Pos	marking	3	0.03	0.0	1.5278912779995153	0.3858469339993462	0	0	0
87.002331998	3.0	Pos	encoding	57	0.57	0.5594713656387665	2.1277497879982548	0.37130317199989804	0	0	0
94.000259723	3.0	Pos	marking	57	0.57	0.5594713656387665	2.1277497879982548	0.37130317199989804	0	0	0
101.501633571	3.0	Pos	encoding	45	0.45	0.44052863436123346	1.3592895070014492	0.3717901180007175	0	0	0
108.000757342	3.0	Pos	marking	45	0.45	0.44052863436123346	1.3592895070014492	0.3717901180007175	0	0	0
117.501801289	3.0	Pos	encoding	28	0.28	0.0	NaN	0.39468271499936236	0	0	0
121.501036254	3.0	Pos	marking	28	0.28	0.0	NaN	0.39468271499936236	1	0	0
129.503432754	3.0	Pos	encoding	77	0.77	0.0	NaN	0.3810798579997936	0	0	0
134.001423011	3.0	Pos	marking	77	0.77	0.0	NaN	0.3810798579997936	1	0	0
141.502028941	3.0	Pos	encoding	65	0.65	0.6057268722466961	1.7111204189986893	0.3599066189999576	0	0	0
145.001658524	3.0	Pos	marking	65	0.65	0.6057268722466961	1.7111204189986893	0.3599066189999576	0	0	0
152.00247307	3.0	Pos	encoding	21	0.21	0.1828193832599119	2.392259758000364	0.45337684100013576	0	0	0
156.002009052	3.0	Pos	marking	21	0.21	0.1828193832599119	2.392259758000364	0.45337684100013576	0	0	0
163.501317205	3.0	Pos	encoding	36	0.36	0.30837004405286345	1.6456198870000662	0.36241772799985483	0	0	0
167.502252506	3.0	Pos	marking	36	0.36	0.30837004405286345	1.6456198870000662	0.36241772799985483	0	0	0
174.501405362	3.0	Pos	encoding	90	0.9	0.8634361233480177	2.062554148000345	0.34222566899916274	0	0	0
178.002522862	3.0	Pos	marking	90	0.9	0.8634361233480177	2.062554148000345	0.34222566899916274	0	0	0
184.501109308	3.0	Pos	encoding	74	0.74	0.751101321585903	1.4952504740012955	0.3634912950001308	0	0	0
190.002755149	3.0	Pos	marking	74	0.74	0.751101321585903	1.4952504740012955	0.3634912950001308	0	0	0
196.502036736	3.0	Pos	encoding	60	0.6	0.0	NaN	0.4174088109994045	0	0	0
201.003169653	3.0	Pos	marking	60	0.6	0.0	NaN	0.4174088109994045	1	0	0
204.0	6.0	break	break	NaN	NaN	NaN	NaN	NaN	NaN	NaN	NaN
214.002614012	3.0	Neg	encoding	-86	0.07	0.09030837004405286	2.5782732629995735	0.41027541999937966	0	0	0
218.503565693	3.0	Neg	marking	-86	0.07	0.09030837004405286	2.5782732629995735	0.41027541999937966	1	0	0
227.002356822	3.0	Neg	encoding	20	0.6	0.6189427312775331	2.144630447999589	0.6628927809997549	0	0	0
230.003847813	3.0	Neg	marking	20	0.6	0.6189427312775331	2.144630447999589	0.6628927809997549	0	0	0
236.002994714	3.0	Neg	encoding	-34	0.33	0.33480176211453744	1.4924037270011468	0.4333808589999535	0	0	0
239.004167982	3.0	Neg	marking	-34	0.33	0.33480176211453744	1.4924037270011468	0.4333808589999535	0	0	0
248.003226662	3.0	Neg	encoding	-94	0.03	0.0	NaN	0.3579186259994458	0	1	0
254.504569391	3.0	Neg	marking	-94	0.03	0.0	NaN	0.3579186259994458	0	1	0
262.001754351	3.0	Neg	encoding	70	0.85	0.9030837004405287	1.8791365689994564	0.33974462900005165	0	0	0
269.004898842	3.0	Neg	marking	70	0.85	0.9030837004405287	1.8791365689994564	0.33974462900005165	0	0	0
278.503425844	3.0	Neg	encoding	54	0.77	0.737885462555066	1.746018259000266	0.35756215900073585	0	0	0
282.505252896	3.0	Neg	marking	54	0.77	0.737885462555066	1.746018259000266	0.35756215900073585	0	0	0
289.001855805	3.0	Neg	encoding	-44	0.28	0.2488986784140969	2.3788144089994603	0.42070840499945916	0	0	0
295.00551368	3.0	Neg	marking	-44	0.28	0.2488986784140969	2.3788144089994603	0.42070840499945916	0	0	0
302.002641496	3.0	Neg	encoding	-58	0.21	0.2488986784140969	2.109141553999507	0.4075153510002565	0	0	0
305.505905355	3.0	Neg	marking	-58	0.21	0.2488986784140969	2.109141553999507	0.4075153510002565	0	0	0
312.001606853	3.0	Neg	encoding	80	0.9	0.0	NaN	0.3574777580015507	0	0	0
316.006177815	3.0	Neg	marking	80	0.9	0.0	NaN	0.3574777580015507	1	0	0
326.002267782	3.0	Neg	encoding	14	0.57	0.6123348017621145	1.3781161269998847	0.36249162499916565	0	0	0
329.506456188	3.0	Neg	marking	14	0.57	0.6123348017621145	1.3781161269998847	0.36249162499916565	0	0	0
337.0026951	3.0	Neg	encoding	-10	0.45	0.44713656387665196	1.7265957379986503	0.4096816410001338	0	0	0
341.006801982	3.0	Neg	marking	-10	0.45	0.44713656387665196	1.7265957379986503	0.4096816410001338	0	0	0
347.002986705	3.0	Neg	encoding	48	0.74	0.0	NaN	1.234647072998996	0	1	0
351.507057488	3.0	Neg	marking	48	0.74	0.0	NaN	1.234647072998996	0	1	0
359.001743937	3.0	Neg	encoding	-28	0.36	0.36123348017621143	1.4923011639984907	0.31507026799954474	0	0	0
364.00743099	3.0	Neg	marking	-28	0.36	0.36123348017621143	1.4923011639984907	0.31507026799954474	0	0	0
371.002512218	3.0	Neg	encoding	96	0.98	1.0	1.4092511540002306	0.333672321999984	0	0	0
376.5078521	3.0	Neg	marking	96	0.98	1.0	1.4092511540002306	0.333672321999984	0	0	0
383.001452817	3.0	Neg	encoding	-78	0.11	0.0	NaN	0.34754019399952085	0	0	0
386.508005181	3.0	Neg	marking	-78	0.11	0.0	NaN	0.34754019399952085	1	0	0
394.50176197	3.0	Neg	encoding	30	0.65	0.0	NaN	0.8769445469988568	0	0	0
399.00827393	3.0	Neg	marking	30	0.65	0.0	NaN	0.8769445469988568	1	0	0
402.0	6.0	break	break	NaN	NaN	NaN	NaN	NaN	NaN	NaN	NaN
414.502409494	3.0	Word	encoding	it	0.74	0.0	NaN	0.5860395780000545	0	1	0
418.50876851	3.0	Word	marking	it	0.74	0.0	NaN	0.5860395780000545	0	1	0
424.503328443	3.0	Word	encoding	me	0.11	0.0	NaN	0.33641499300028954	0	0	0
429.008988677	3.0	Word	marking	me	0.11	0.0	NaN	0.33641499300028954	1	0	0
436.002563963	3.0	Word	encoding	or	0.77	0.76431718061674	1.7094051819985907	0.44833884699983173	0	0	0
440.009401773	3.0	Word	marking	or	0.77	0.76431718061674	1.7094051819985907	0.44833884699983173	0	0	0
446.003031661	3.0	Word	encoding	be	0.57	0.5726872246696035	1.3439813850000064	0.36118195800008834	0	0	0
452.009645373	3.0	Word	marking	be	0.57	0.5726872246696035	1.3439813850000064	0.36118195800008834	0	0	0
461.00331981	3.0	Word	encoding	ox	0.85	0.8568281938325991	1.726843069998722	0.4166858289991069	0	0	0
465.510020221	3.0	Word	marking	ox	0.85	0.8568281938325991	1.726843069998722	0.4166858289991069	0	0	0
472.003413129	3.0	Word	encoding	as	0.36	0.36123348017621143	1.611922861999119	0.31312087699916447	0	0	0
476.510305471	3.0	Word	marking	as	0.36	0.36123348017621143	1.611922861999119	0.31312087699916447	0	0	0
483.002977065	3.0	Word	encoding	so	0.28	0.2753303964757709	1.9093290059990977	0.36625438899864093	0	0	0
486.010609294	3.0	Word	marking	so	0.28	0.2753303964757709	1.9093290059990977	0.36625438899864093	0	0	0
496.00289479	3.0	Word	encoding	my	0.07	0.09030837004405286	2.026938019998852	0.3507693270003074	0	0	0
501.510939468	3.0	Word	marking	my	0.07	0.09030837004405286	2.026938019998852	0.3507693270003074	0	0	0
509.003255218	3.0	Word	encoding	am	0.98	0.0	NaN	0.39364394600124797	0	0	0
512.511304463	3.0	Word	marking	am	0.98	0.0	NaN	0.39364394600124797	1	0	0
520.003360131	3.0	Word	encoding	if	0.33	0.32158590308370044	1.8595892640005331	0.37420086700149113	0	0	0
524.011592183	3.0	Word	marking	if	0.33	0.32158590308370044	1.8595892640005331	0.37420086700149113	0	0	0
532.002756842	3.0	Word	encoding	is	0.9	0.8832599118942731	1.9260437980010465	0.40983096700074384	0	0	0
535.011877923	3.0	Word	marking	is	0.9	0.8832599118942731	1.9260437980010465	0.40983096700074384	0	0	0
543.501724434	3.0	Word	encoding	by	0.03	0.011013215859030838	1.959659644999192	0.3357070210004167	0	0	0
548.512230678	3.0	Word	marking	by	0.03	0.011013215859030838	1.959659644999192	0.3357070210004167	0	0	0
555.002376913	3.0	Word	encoding	do	0.65	0.6651982378854625	1.8595579249995353	0.4522900930005562	0	0	0
558.512488288	3.0	Word	marking	do	0.65	0.6651982378854625	1.8595579249995353	0.4522900930005562	0	0	0
565.502907411	3.0	Word	encoding	we	0.6	0.0	NaN	0.4150974929998483	0	0	0
569.012761549	3.0	Word	marking	we	0.6	0.0	NaN	0.4150974929998483	1	0	0
576.502781945	3.0	Word	encoding	of	0.45	0.0	NaN	0.36368197000047076	0	0	0
583.513165883	3.0	Word	marking	of	0.45	0.0	NaN	0.36368197000047076	1	0	0
590.503244377	3.0	Word	encoding	he	0.21	0.21585903083700442	2.0953194570010965	0.4129099000001588	0	0	0
597.0134152	3.0	Word	marking	he	0.21	0.21585903083700442	2.0953194570010965	0.4129099000001588	0	0	0
