onset	duration	trial_type	phase	probe	line_pct	response	RT	RTHold	catch	missed	problem_trial
15.001876105	3.0	Pos	encoding	3	0.03	0.0	NaN	0.371270089999598	0	0	0
20.006725255	3.0	Pos	marking	3	0.03	0.0	NaN	0.371270089999598	1	0	0
26.002008587	3.0	Pos	encoding	65	0.65	0.0	NaN	0.9989690679994965	0	0	0
29.50713117	3.0	Pos	marking	65	0.65	0.0	NaN	0.9989690679994965	1	0	0
37.501006936	3.0	Pos	encoding	36	0.36	0.28854625550660795	2.2428072590009833	0.41284331700080656	0	0	0
44.007568146	3.0	Pos	marking	36	0.36	0.28854625550660795	2.2428072590009833	0.41284331700080656	0	0	0
51.001721146	3.0	Pos	encoding	90	0.9	0.0	NaN	0.4359129589993245	0	0	0
54.507728683	3.0	Pos	marking	90	0.9	0.0	NaN	0.4359129589993245	1	0	0
64.000817698	3.0	Pos	encoding	7	0.07	0.09030837004405286	2.758860239000569	0.44220237500121584	0	0	0
68.008222114	3.0	Pos	marking	7	0.07	0.09030837004405286	2.758860239000569	0.44220237500121584	0	0	0
74.501179665	3.0	Pos	encoding	11	0.11	0.0	NaN	1.1284144149994972	0	1	0
77.508497215	3.0	Pos	marking	11	0.11	0.0	NaN	1.1284144149994972	0	1	0
84.001692284	3.0	Pos	encoding	85	0.85	0.9096916299559471	2.0927170499999193	0.5265649129996746	0	0	0
87.008678426	3.0	Pos	marking	85	0.85	0.9096916299559471	2.0927170499999193	0.5265649129996746	0	0	0
97.001461475	3.0	Pos	encoding	60	0.6	0.6057268722466961	2.0088236550000147	0.47090052400017157	0	0	0
103.009212296	3.0	Pos	marking	60	0.6	0.6057268722466961	2.0088236550000147	0.47090052400017157	0	0	0
110.501963271	3.0	Pos	encoding	98	0.98	0.0	NaN	0.3395450499992876	0	0	0
116.009375574	3.0	Pos	marking	98	0.98	0.0	NaN	0.3395450499992876	1	0	0
123.001651136	3.0	Pos	encoding	45	0.45	0.43392070484581496	1.7254280130000552	0.36325416799991217	0	0	0
130.009941339	3.0	Pos	marking	45	0.45	0.43392070484581496	1.7254280130000552	0.36325416799991217	0	0	0
137.001359685	3.0	Pos	encoding	74	0.74	0.8303964757709251	2.5256616630013013	0.6459716660010599	0	0	0
140.510217258	3.0	Pos	marking	74	0.74	0.8303964757709251	2.5256616630013013	0.6459716660010599	0	0	0
149.001160675	3.0	Pos	encoding	77	0.77	0.7841409691629956	2.6284248029987793	0.4103598290002992	0	0	0
153.510393786	3.0	Pos	marking	77	0.77	0.7841409691629956	2.6284248029987793	0.4103598290002992	0	0	0
162.500810323	3.0	Pos	encoding	21	0.21	0.1696035242290749	1.995362475998263	0.4443613479998021	0	0	0
167.010670163	3.0	Pos	marking	21	0.21	0.1696035242290749	1.995362475998263	0.4443613479998021	0	0	0
173.501895606	3.0	Pos	encoding	28	0.28	0.2555066079295154	2.392042580000634	0.3998534410002321	0	0	0
177.51122082	3.0	Pos	marking	28	0.28	0.2555066079295154	2.392042580000634	0.3998534410002321	0	0	0
185.001331173	3.0	Pos	encoding	57	0.57	0.5198237885462555	1.8789116490006563	0.37575998600004823	0	0	0
189.511421069	3.0	Pos	marking	57	0.57	0.5198237885462555	1.8789116490006563	0.37575998600004823	0	0	0
197.002178113	3.0	Pos	encoding	33	0.33	0.2290748898678414	2.426063625000097	0.5543856809999852	0	1	0
201.011903058	3.0	Pos	marking	33	0.33	0.2290748898678414	2.426063625000097	0.5543856809999852	0	1	0
204.0	6.0	break	break	NaN	NaN	NaN	NaN	NaN	NaN	NaN	NaN
214.00131559	3.0	Neg	encoding	70	0.85	0.8898678414096917	2.6921860050006217	0.4128810149995843	0	0	0
221.012442464	3.0	Neg	marking	70	0.85	0.8898678414096917	2.6921860050006217	0.4128810149995843	0	0	0
227.500946614	3.0	Neg	encoding	48	0.74	0.7444933920704846	2.408881654999277	0.3733289190004143	0	0	0
233.012796266	3.0	Neg	marking	48	0.74	0.7444933920704846	2.408881654999277	0.3733289190004143	0	0	0
241.001919336	3.0	Neg	encoding	96	0.98	0.9691629955947136	2.0930177709997224	0.350411683000857	0	0	0
245.512943461	3.0	Neg	marking	96	0.98	0.9691629955947136	2.0930177709997224	0.350411683000857	0	0	0
253.001741586	3.0	Neg	encoding	14	0.57	0.5859030837004405	2.0259838189995207	0.32274020000113524	0	0	0
257.51343341	3.0	Neg	marking	14	0.57	0.5859030837004405	2.0259838189995207	0.32274020000113524	0	0	0
264.501326774	3.0	Neg	encoding	-44	0.28	0.28854625550660795	2.1427371249992575	0.3734956519983825	0	0	0
269.513814295	3.0	Neg	marking	-44	0.28	0.28854625550660795	2.1427371249992575	0.3734956519983825	0	0	0
276.002283956	3.0	Neg	encoding	54	0.77	0.0	NaN	0.38188140999955067	0	0	0
282.51402393	3.0	Neg	marking	54	0.77	0.0	NaN	0.38188140999955067	1	0	0
291.50186389	3.0	Neg	encoding	30	0.65	0.6387665198237885	2.0087948389991652	0.5026681789986469	0	0	0
295.514533196	3.0	Neg	marking	30	0.65	0.6387665198237885	2.0087948389991652	0.5026681789986469	0	0	0
305.001771832	3.0	Neg	encoding	-10	0.45	0.460352422907489	1.9123264879999624	0.40670101799878466	0	0	0
311.014819865	3.0	Neg	marking	-10	0.45	0.460352422907489	1.9123264879999624	0.40670101799878466	0	0	0
318.501011888	3.0	Neg	encoding	-94	0.03	0.04405286343612335	2.5287720449996414	0.7259578240009432	0	0	0
321.515122319	3.0	Neg	marking	-94	0.03	0.04405286343612335	2.5287720449996414	0.7259578240009432	0	0	0
329.001570642	3.0	Neg	encoding	-34	0.33	0.381057268722467	2.1428019239992864	0.5380094310003187	0	0	0
333.015540949	3.0	Neg	marking	-34	0.33	0.381057268722467	2.1428019239992864	0.5380094310003187	0	0	0
339.000900048	3.0	Neg	encoding	-28	0.36	0.0	NaN	0.6790529919999244	0	0	0
342.015798175	3.0	Neg	marking	-28	0.36	0.0	NaN	0.6790529919999244	1	0	0
352.00221606	3.0	Neg	encoding	-58	0.21	0.30176211453744495	1.859089755000241	0.3451753000008466	0	0	0
356.51626513	3.0	Neg	marking	-58	0.21	0.30176211453744495	1.859089755000241	0.3451753000008466	0	0	0
362.500869086	3.0	Neg	encoding	20	0.6	0.579295154185022	1.775819884000157	0.5268832790006854	0	0	0
366.016510789	3.0	Neg	marking	20	0.6	0.579295154185022	1.775819884000157	0.5268832790006854	0	0	0
373.001178933	3.0	Neg	encoding	80	0.9	0.0	NaN	0.38336559100025625	0	0	0
376.516751657	3.0	Neg	marking	80	0.9	0.0	NaN	0.38336559100025625	1	0	0
385.000883608	3.0	Neg	encoding	-86	0.07	0.07709251101321586	2.3628382930000953	0.625281262999124	0	0	0
388.500329072	3.0	Neg	marking	-86	0.07	0.07709251101321586	2.3628382930000953	0.625281262999124	0	0	0
395.000860332	3.0	Neg	encoding	-78	0.11	0.0	NaN	0.47453677500016056	0	0	0
399.000596512	3.0	Neg	marking	-78	0.11	0.0	NaN	0.47453677500016056	1	0	0
402.0	6.0	break	break	NaN	NaN	NaN	NaN	NaN	NaN	NaN	NaN
412.001320406	3.0	Word	encoding	do	0.98	0.9757709251101322	2.3095133429997077	0.5062345040005312	0	0	0
416.501301741	3.0	Word	marking	do	0.98	0.9757709251101322	2.3095133429997077	0.5062345040005312	0	0	0
423.001495007	3.0	Word	encoding	it	0.11	0.11013215859030837	2.675842656999521	0.544025466999301	0	0	0
428.001530814	3.0	Word	marking	it	0.11	0.11013215859030837	2.675842656999521	0.544025466999301	0	0	0
438.000879205	3.0	Word	encoding	am	0.85	0.8436123348017621	2.1619605150008283	0.44629874500060396	0	0	0
442.501801972	3.0	Word	marking	am	0.85	0.8436123348017621	2.1619605150008283	0.44629874500060396	0	0	0
450.00203197	3.0	Word	encoding	ox	0.33	0.33480176211453744	2.2091060869988723	0.8471892990000924	0	0	0
453.50231776	3.0	Word	marking	ox	0.33	0.33480176211453744	2.2091060869988723	0.8471892990000924	0	0	0
462.001633831	3.0	Word	encoding	by	0.6	0.5925110132158591	1.5758256219996838	0.4357610890001524	0	0	0
469.002724702	3.0	Word	marking	by	0.6	0.5925110132158591	1.5758256219996838	0.4357610890001524	0	0	0
476.002047073	3.0	Word	encoding	as	0.07	0.0	NaN	0.5975433650000923	0	0	0
479.503018603	3.0	Word	marking	as	0.07	0.0	NaN	0.5975433650000923	1	0	0
488.501572016	3.0	Word	encoding	he	0.9	0.0	NaN	0.3831282230003126	0	0	0
494.00339543	3.0	Word	marking	he	0.9	0.0	NaN	0.3831282230003126	1	0	0
500.001321883	3.0	Word	encoding	or	0.21	0.2026431718061674	2.2839311359985004	0.5385334759994294	0	0	0
503.003690579	3.0	Word	marking	or	0.21	0.2026431718061674	2.2839311359985004	0.5385334759994294	0	0	0
510.502395878	3.0	Word	encoding	my	0.74	0.737885462555066	2.4290604119996715	0.5203664840009878	0	0	0
514.503811142	3.0	Word	marking	my	0.74	0.737885462555066	2.4290604119996715	0.5203664840009878	0	0	0
522.002023348	3.0	Word	encoding	be	0.57	0.579295154185022	1.811249491000126	0.43338060499991116	0	0	0
528.504202289	3.0	Word	marking	be	0.57	0.579295154185022	1.811249491000126	0.43338060499991116	0	0	0
536.501149049	3.0	Word	encoding	if	0.03	0.030837004405286344	2.3282891170001676	0.6052187149998645	0	0	0
541.004578838	3.0	Word	marking	if	0.03	0.030837004405286344	2.3282891170001676	0.6052187149998645	0	0	0
550.501037432	3.0	Word	encoding	me	0.77	0.7577092511013216	2.2608212849991105	0.6207017499982612	0	0	0
554.004952848	3.0	Word	marking	me	0.77	0.7577092511013216	2.2608212849991105	0.6207017499982612	0	0	0
560.501543983	3.0	Word	encoding	is	0.65	0.0	NaN	0.6980952819994855	0	0	0
564.505428368	3.0	Word	marking	is	0.65	0.0	NaN	0.6980952819994855	1	0	0
571.00104997	3.0	Word	encoding	we	0.36	0.0	NaN	0.5848023320013453	0	0	0
577.00575566	3.0	Word	marking	we	0.36	0.0	NaN	0.5848023320013453	1	0	0
583.002137888	3.0	Word	encoding	of	0.45	0.43392070484581496	2.0262990680002986	0.6718975660005526	0	0	0
586.005946503	3.0	Word	marking	of	0.45	0.43392070484581496	2.0262990680002986	0.6718975660005526	0	0	0
593.001779935	3.0	Word	encoding	so	0.28	0.29515418502202645	2.475788293999358	0.6562237729995104	0	0	0
597.006307572	3.0	Word	marking	so	0.28	0.29515418502202645	2.475788293999358	0.6562237729995104	0	0	0
