onset	duration	trial_type	phase	probe	line_pct	response	RT	RTHold	catch	missed	problem_trial
15.001226	3.0	Neg	encoding	-78	0.11	0.1894273127753304	2.275891887000398	0.4976167829991027	0	0	0
18.006130937	3.0	Neg	marking	-78	0.11	0.1894273127753304	2.275891887000398	0.4976167829991027	0	0	0
24.502067619	3.0	Neg	encoding	70	0.85	0.0	NaN	0.38215566299913917	0	0	0
28.506586173	3.0	Neg	marking	70	0.85	0.0	NaN	0.38215566299913917	1	0	0
36.00259929	3.0	Neg	encoding	54	0.77	0.0	NaN	0.3917577539996273	0	0	0
43.006896264	3.0	Neg	marking	54	0.77	0.0	NaN	0.3917577539996273	1	0	0
50.500937852	3.0	Neg	encoding	20	0.6	0.6453744493392071	2.06244751200029	0.5216132519999519	0	0	0
54.00709131	3.0	Neg	marking	20	0.6	0.6453744493392071	2.06244751200029	0.5216132519999519	0	0	0
62.001038425	3.0	Neg	encoding	-34	0.33	0.30837004405286345	2.559092651001265	0.3721502389998932	0	0	0
67.50760734	3.0	Neg	marking	-34	0.33	0.30837004405286345	2.559092651001265	0.3721502389998932	0	0	0
74.501092195	3.0	Neg	encoding	14	0.57	0.6189427312775331	2.0756559539986483	0.3526199509997241	0	0	0
79.007911776	3.0	Neg	marking	14	0.57	0.6189427312775331	2.0756559539986483	0.3526199509997241	0	0	0
86.001188292	3.0	Neg	encoding	-44	0.28	0.2753303964757709	2.2425976619997527	0.5844334000012168	0	0	0
89.008165201	3.0	Neg	marking	-44	0.28	0.2753303964757709	2.2425976619997527	0.5844334000012168	0	0	0
95.501899023	3.0	Neg	encoding	-28	0.36	0.34140969162995594	2.375632803999906	0.420141902000978	0	0	0
100.508438746	3.0	Neg	marking	-28	0.36	0.34140969162995594	2.375632803999906	0.420141902000978	0	0	0
110.000914167	3.0	Neg	encoding	-10	0.45	0.0	NaN	0.46468624800036196	0	0	0
114.558677452	3.0	Neg	marking	-10	0.45	0.0	NaN	0.46468624800036196	1	0	0
123.501286294	3.0	Neg	encoding	96	0.98	0.01762114537444934	1.908521056000609	0.37138839600083884	0	1	0
127.509223567	3.0	Neg	marking	96	0.98	0.01762114537444934	1.908521056000609	0.37138839600083884	0	1	0
137.501237126	3.0	Neg	encoding	-94	0.03	0.0	NaN	0.42489337699953467	0	0	0
142.009435891	3.0	Neg	marking	-94	0.03	0.0	NaN	0.42489337699953467	1	0	0
148.502536012	3.0	Neg	encoding	30	0.65	0.6784140969162996	2.542405828999108	0.5909295500005101	0	0	0
154.509761277	3.0	Neg	marking	30	0.65	0.6784140969162996	2.542405828999108	0.5909295500005101	0	0	0
162.001170176	3.0	Neg	encoding	-86	0.07	0.10352422907488987	2.759309501001553	0.3872859890016116	0	0	0
168.510317299	3.0	Neg	marking	-86	0.07	0.10352422907488987	2.759309501001553	0.3872859890016116	0	0	0
174.500851122	3.0	Neg	encoding	48	0.74	0.7180616740088106	2.228885798000192	0.7172041770008946	0	0	0
178.010427212	3.0	Neg	marking	48	0.74	0.7180616740088106	2.228885798000192	0.7172041770008946	0	0	0
185.000873247	3.0	Neg	encoding	-58	0.21	0.2488986784140969	2.1121371289991657	0.46769806199881714	0	0	0
188.510738215	3.0	Neg	marking	-58	0.21	0.2488986784140969	2.1121371289991657	0.46769806199881714	0	0	0
197.001102974	3.0	Neg	encoding	80	0.9	0.8303964757709251	1.8777637650000543	0.3825864489990636	0	0	0
201.011034575	3.0	Neg	marking	80	0.9	0.8303964757709251	1.8777637650000543	0.3825864489990636	0	0	0
204.0	6.0	break	break	NaN	NaN	NaN	NaN	NaN	NaN	NaN	NaN
213.000984006	3.0	Pos	encoding	33	0.33	0.0	NaN	0.403215189000548	0	0	0
216.51134848	3.0	Pos	marking	33	0.33	0.0	NaN	0.403215189000548	1	0	0
223.001521872	3.0	Pos	encoding	21	0.21	0.0	NaN	0.3774813899999572	0	0	0
230.011804109	3.0	Pos	marking	21	0.21	0.0	NaN	0.3774813899999572	1	0	0
237.002142041	3.0	Pos	encoding	65	0.65	0.6585903083700441	2.1424639679989923	0.43347942499895	0	0	0
241.512288305	3.0	Pos	marking	65	0.65	0.6585903083700441	2.1424639679989923	0.43347942499895	0	0	0
251.50100043	3.0	Pos	encoding	74	0.74	0.724669603524229	2.475754680999671	0.6029642880002939	0	0	0
254.512661241	3.0	Pos	marking	74	0.74	0.724669603524229	2.475754680999671	0.6029642880002939	0	0	0
263.501321837	3.0	Pos	encoding	45	0.45	0.44052863436123346	1.994761515999926	0.3916865829996823	0	0	0
269.512948108	3.0	Pos	marking	45	0.45	0.44052863436123346	1.994761515999926	0.3916865829996823	0	0	0
276.501318605	3.0	Pos	encoding	98	0.98	0.0	NaN	0.5533064470000681	0	0	0
280.013357394	3.0	Pos	marking	98	0.98	0.0	NaN	0.5533064470000681	1	0	0
288.502236688	3.0	Pos	encoding	90	0.9	0.0	NaN	0.49697172199921624	0	0	0
292.513697965	3.0	Pos	marking	90	0.9	0.0	NaN	0.49697172199921624	1	0	0
298.502010538	3.0	Pos	encoding	60	0.6	0.6321585903083701	2.05963567300023	0.45100886000000173	0	0	0
302.513822079	3.0	Pos	marking	60	0.6	0.6321585903083701	2.05963567300023	0.45100886000000173	0	0	0
309.502183628	3.0	Pos	encoding	85	0.85	0.0	NaN	0.4462652420006634	0	1	0
313.5143038	3.0	Pos	marking	85	0.85	0.0	NaN	0.4462652420006634	0	1	0
321.502334997	3.0	Pos	encoding	11	0.11	0.13656387665198239	1.957427203999032	0.46277159999954165	0	0	0
326.014768449	3.0	Pos	marking	11	0.11	0.13656387665198239	1.957427203999032	0.46277159999954165	0	0	0
333.500833899	3.0	Pos	encoding	77	0.77	0.711453744493392	2.292390754000735	0.4089087450010993	0	0	0
338.014783082	3.0	Pos	marking	77	0.77	0.711453744493392	2.292390754000735	0.4089087450010993	0	0	0
344.502153574	3.0	Pos	encoding	28	0.28	0.2555066079295154	2.4096049609997863	0.7898692119997577	0	0	0
348.015068406	3.0	Pos	marking	28	0.28	0.2555066079295154	2.4096049609997863	0.7898692119997577	0	0	0
355.50150933	3.0	Pos	encoding	36	0.36	0.34801762114537443	2.162378933999207	0.344664993999686	0	0	0
360.515215546	3.0	Pos	marking	36	0.36	0.34801762114537443	2.162378933999207	0.344664993999686	0	0	0
367.001586476	3.0	Pos	encoding	57	0.57	0.5859030837004405	1.8752548739994381	0.5247315769993293	0	0	0
370.015881169	3.0	Pos	marking	57	0.57	0.5859030837004405	1.8752548739994381	0.5247315769993293	0	0	0
377.501315083	3.0	Pos	encoding	7	0.07	0.10352422907488987	2.0786903600001096	0.36265579700011585	0	0	0
383.016044193	3.0	Pos	marking	7	0.07	0.10352422907488987	2.0786903600001096	0.36265579700011585	0	0	0
392.501129214	3.0	Pos	encoding	3	0.03	0.030837004405286344	2.2590513239993015	0.44202466800015827	0	0	0
399.016621559	3.0	Pos	marking	3	0.03	0.030837004405286344	2.2590513239993015	0.44202466800015827	0	0	0
402.0	6.0	break	break	NaN	NaN	NaN	NaN	NaN	NaN	NaN	NaN
415.001040806	3.0	Word	encoding	of	0.74	0.737885462555066	1.9958994379994692	0.3948396670002694	0	0	0
418.50023974	3.0	Word	marking	of	0.74	0.737885462555066	1.9958994379994692	0.3948396670002694	0	0	0
427.001777044	3.0	Word	encoding	my	0.11	0.10352422907488987	2.5923534060002567	0.4329103469990514	0	0	0
433.500900487	3.0	Word	marking	my	0.11	0.10352422907488987	2.5923534060002567	0.4329103469990514	0	0	0
439.501243066	3.0	Word	encoding	do	0.28	0.29515418502202645	2.195403724001153	0.8937170040007913	0	0	0
443.000895383	3.0	Word	marking	do	0.28	0.29515418502202645	2.195403724001153	0.8937170040007913	0	0	0
450.001737365	3.0	Word	encoding	we	0.07	0.06387665198237885	1.7590975639996032	0.3773940489991219	0	0	0
455.501476131	3.0	Word	marking	we	0.07	0.06387665198237885	1.7590975639996032	0.3773940489991219	0	0	0
462.002081694	3.0	Word	encoding	as	0.03	0.0	NaN	0.44554989700009173	0	0	0
466.501619586	3.0	Word	marking	as	0.03	0.0	NaN	0.44554989700009173	1	0	0
474.000803845	3.0	Word	encoding	or	0.9	0.0	NaN	0.4562469399988913	0	0	0
478.001973956	3.0	Word	marking	or	0.9	0.0	NaN	0.4562469399988913	1	0	0
487.502112495	3.0	Word	encoding	me	0.57	0.5859030837004405	1.828986841999722	0.4123445499990339	0	0	0
491.50227022	3.0	Word	marking	me	0.57	0.5859030837004405	1.828986841999722	0.4123445499990339	0	0	0
499.002363667	3.0	Word	encoding	so	0.33	0.32158590308370044	1.9792019000014989	0.3990389310001774	0	0	0
504.00255718	3.0	Word	marking	so	0.33	0.32158590308370044	1.9792019000014989	0.3990389310001774	0	0	0
513.00222499	3.0	Word	encoding	ox	0.6	0.5991189427312775	1.6426011259991355	0.4308920699986629	0	0	0
516.503088147	3.0	Word	marking	ox	0.6	0.5991189427312775	1.6426011259991355	0.4308920699986629	0	0	0
522.501487845	3.0	Word	encoding	by	0.45	0.0	NaN	0.38750555600017833	0	0	0
529.503409784	3.0	Word	marking	by	0.45	0.0	NaN	0.38750555600017833	1	0	0
537.501240442	3.0	Word	encoding	be	0.85	0.0	NaN	0.46416270500048995	0	0	0
542.003586421	3.0	Word	marking	be	0.85	0.0	NaN	0.46416270500048995	1	0	0
549.001814691	3.0	Word	encoding	it	0.21	0.21585903083700442	2.4430819150002208	0.6019899729999452	0	0	0
552.004051353	3.0	Word	marking	it	0.21	0.21585903083700442	2.4430819150002208	0.6019899729999452	0	0	0
558.501536419	3.0	Word	encoding	if	0.36	0.36123348017621143	1.7716053559997818	0.4383868229997461	0	0	0
563.004364988	3.0	Word	marking	if	0.36	0.36123348017621143	1.7716053559997818	0.4383868229997461	0	0	0
570.502224581	3.0	Word	encoding	is	0.77	0.7709251101321586	2.4762503079982707	0.4505819979985972	0	0	0
573.50450174	3.0	Word	marking	is	0.77	0.7709251101321586	2.4762503079982707	0.4505819979985972	0	0	0
580.501894604	3.0	Word	encoding	am	0.98	0.9625550660792952	2.2426911530001234	0.3860646880002605	0	0	0
584.504829253	3.0	Word	marking	am	0.98	0.9625550660792952	2.2426911530001234	0.3860646880002605	0	0	0
591.001881143	3.0	Word	encoding	he	0.65	0.6585903083700441	1.9956865519998246	0.40178994800044165	0	0	0
597.00503402	3.0	Word	marking	he	0.65	0.6585903083700441	1.9956865519998246	0.40178994800044165	0	0	0
