onset	duration	trial_type	phase	probe	line_pct	response	RT	RTHold	catch	missed	problem_trial
15.501353123	3.0	Word	encoding	so	0.03	0.01762114537444934	1.8594461449974915	0.3571205739972356	0	0	0
20.00843668	3.0	Word	marking	so	0.03	0.01762114537444934	1.8594461449974915	0.3571205739972356	0	0	0
30.002748184	3.0	Word	encoding	my	0.28	0.28854625550660795	1.5444573550012137	0.3289567020001414	0	0	0
33.008579785	3.0	Word	marking	my	0.28	0.28854625550660795	1.5444573550012137	0.3289567020001414	0	0	0
39.001477402	3.0	Word	encoding	be	0.77	0.7709251101321586	2.0294038749998435	0.3489266670003417	0	0	0
43.008830686	3.0	Word	marking	be	0.77	0.7709251101321586	2.0294038749998435	0.3489266670003417	0	0	0
50.001077293	3.0	Word	encoding	or	0.6	0.0	NaN	0.3524396449975029	0	0	0
57.009115267	3.0	Word	marking	or	0.6	0.0	NaN	0.3524396449975029	1	0	0
66.501796302	3.0	Word	encoding	me	0.21	0.2026431718061674	2.3288659989993903	0.5090594009998313	0	0	0
70.009528526	3.0	Word	marking	me	0.21	0.2026431718061674	2.3288659989993903	0.5090594009998313	0	0	0
76.501764377	3.0	Word	encoding	as	0.65	0.6453744493392071	1.393476348999684	0.32087761200091336	0	0	0
81.009839207	3.0	Word	marking	as	0.65	0.6453744493392071	1.393476348999684	0.32087761200091336	0	0	0
87.002484026	3.0	Word	encoding	he	0.85	0.8303964757709251	2.246429660001013	0.3358616699988488	0	0	0
93.509979071	3.0	Word	marking	he	0.85	0.8303964757709251	2.246429660001013	0.3358616699988488	0	0	0
100.501615194	3.0	Word	encoding	is	0.74	0.0	NaN	0.5122059269997408	0	0	0
104.510379888	3.0	Word	marking	is	0.74	0.0	NaN	0.5122059269997408	1	0	0
112.501876433	3.0	Word	encoding	of	0.33	0.34140969162995594	1.7621069320011884	0.3457273810017796	0	0	0
117.510676832	3.0	Word	marking	of	0.33	0.34140969162995594	1.7621069320011884	0.3457273810017796	0	0	0
126.50240663	3.0	Word	encoding	if	0.9	0.8898678414096917	2.1770410829994944	0.37425078700107406	0	0	0
130.511042313	3.0	Word	marking	if	0.9	0.8898678414096917	2.1770410829994944	0.37425078700107406	0	0	0
139.002519006	3.0	Word	encoding	by	0.11	0.11674008810572688	2.045929502000945	0.5056870420012274	0	0	0
142.011298408	3.0	Word	marking	by	0.11	0.11674008810572688	2.045929502000945	0.5056870420012274	0	0	0
149.502880604	3.0	Word	encoding	it	0.98	0.0	NaN	0.326935136999964	0	0	0
153.011848593	3.0	Word	marking	it	0.98	0.0	NaN	0.326935136999964	1	0	0
160.503680938	3.0	Word	encoding	we	0.36	0.36784140969163	1.9921663830027683	0.3980568020015198	0	0	0
164.012162109	3.0	Word	marking	we	0.36	0.36784140969163	1.9921663830027683	0.3980568020015198	0	0	0
171.002085067	3.0	Word	encoding	ox	0.57	0.5594713656387665	1.659478368001146	0.3321367030002875	0	0	0
177.012448095	3.0	Word	marking	ox	0.57	0.5594713656387665	1.659478368001146	0.3321367030002875	0	0	0
183.502142863	3.0	Word	encoding	am	0.45	0.45374449339207046	1.7960202940012095	0.2945248809992336	0	0	0
188.01258335	3.0	Word	marking	am	0.45	0.45374449339207046	1.7960202940012095	0.2945248809992336	0	0	0
195.502377795	3.0	Word	encoding	do	0.07	0.0	NaN	0.31982417599647306	0	0	0
201.01275236	3.0	Word	marking	do	0.07	0.0	NaN	0.31982417599647306	1	0	0
204.0	6.0	break	break	NaN	NaN	NaN	NaN	NaN	NaN	NaN	NaN
214.502274317	3.0	Neg	encoding	80	0.9	0.0	NaN	0.4406950830016285	0	0	0
218.013384337	3.0	Neg	marking	80	0.9	0.0	NaN	0.4406950830016285	1	0	0
226.500951868	3.0	Neg	encoding	-86	0.07	0.09030837004405286	1.6121634199989785	0.3531317669985583	0	0	0
231.013510029	3.0	Neg	marking	-86	0.07	0.09030837004405286	1.6121634199989785	0.3531317669985583	0	0	0
240.501696153	3.0	Neg	encoding	-78	0.11	0.14977973568281938	1.861226501998317	0.4144999189993541	0	0	0
245.014071287	3.0	Neg	marking	-78	0.11	0.14977973568281938	1.861226501998317	0.4144999189993541	0	0	0
252.001230673	3.0	Neg	encoding	-28	0.36	0.35462555066079293	1.6254767320024257	0.38996186000076705	0	0	0
256.514467403	3.0	Neg	marking	-28	0.36	0.35462555066079293	1.6254767320024257	0.38996186000076705	0	0	0
264.001645186	3.0	Neg	encoding	-94	0.03	0.037444933920704845	1.6287204059990472	0.4063748240005225	0	0	0
268.014669969	3.0	Neg	marking	-94	0.03	0.037444933920704845	1.6287204059990472	0.4063748240005225	0	0	0
275.002294168	3.0	Neg	encoding	-10	0.45	0.0	NaN	0.4263860079990991	0	0	0
279.014908213	3.0	Neg	marking	-10	0.45	0.0	NaN	0.4263860079990991	1	0	0
287.002217116	3.0	Neg	encoding	-34	0.33	0.32158590308370044	2.010887903001276	0.42216122500030906	0	0	0
290.515129624	3.0	Neg	marking	-34	0.33	0.32158590308370044	2.010887903001276	0.42216122500030906	0	0	0
296.513895748	3.0	Neg	encoding	96	0.98	0.0	NaN	0.3680627040012041	0	0	0
300.015702168	3.0	Neg	marking	96	0.98	0.0	NaN	0.3680627040012041	1	0	0
307.004385301	3.0	Neg	encoding	54	0.77	0.737885462555066	2.3246461740018276	0.34321733199976734	0	0	0
313.516048009	3.0	Neg	marking	54	0.77	0.737885462555066	2.3246461740018276	0.34321733199976734	0	0	0
320.001173419	3.0	Neg	encoding	30	0.65	0.6718061674008811	1.775378632999491	0.4079733770013263	0	0	0
325.016303705	3.0	Neg	marking	30	0.65	0.6718061674008811	1.775378632999491	0.4079733770013263	0	0	0
332.501961262	3.0	Neg	encoding	48	0.74	0.0	NaN	0.3371442030002072	0	0	0
338.016379913	3.0	Neg	marking	48	0.74	0.0	NaN	0.3371442030002072	1	0	0
344.501195517	3.0	Neg	encoding	14	0.57	0.579295154185022	1.7426539520020015	0.450271192999935	0	0	0
348.500231825	3.0	Neg	marking	14	0.57	0.579295154185022	1.7426539520020015	0.450271192999935	0	0	0
354.502135796	3.0	Neg	encoding	-44	0.28	0.2753303964757709	1.962266243997874	0.3442143389984267	0	0	0
361.500373771	3.0	Neg	marking	-44	0.28	0.2753303964757709	1.962266243997874	0.3442143389984267	0	0	0
370.501461639	3.0	Neg	encoding	-58	0.21	0.2555066079295154	2.159146771999076	0.5887110389994632	0	0	0
376.500915626	3.0	Neg	marking	-58	0.21	0.2555066079295154	2.159146771999076	0.5887110389994632	0	0	0
386.502043995	3.0	Neg	encoding	70	0.85	0.76431718061674	1.7122725609988265	0.6696946910014958	0	0	0
389.501164545	3.0	Neg	marking	70	0.85	0.76431718061674	1.7122725609988265	0.6696946910014958	0	0	0
396.003223004	3.0	Neg	encoding	20	0.6	0.6321585903083701	1.6453553829996963	0.44263561699699494	0	0	0
399.001376961	3.0	Neg	marking	20	0.6	0.6321585903083701	1.6453553829996963	0.44263561699699494	0	0	0
402.0	6.0	break	break	NaN	NaN	NaN	NaN	NaN	NaN	NaN	NaN
414.001218927	3.0	Pos	encoding	3	0.03	0.0	2.062112988998706	0.39949604499997804	0	0	0
417.501829033	3.0	Pos	marking	3	0.03	0.0	2.062112988998706	0.39949604499997804	0	0	0
425.001819021	3.0	Pos	encoding	7	0.07	0.06387665198237885	2.362105170999712	0.36224235099871294	0	0	0
430.502055664	3.0	Pos	marking	7	0.07	0.06387665198237885	2.362105170999712	0.36224235099871294	0	0	0
437.502307119	3.0	Pos	encoding	33	0.33	0.30837004405286345	1.3961149200004002	0.46335930199711584	0	0	0
442.002476971	3.0	Pos	marking	33	0.33	0.30837004405286345	1.3961149200004002	0.46335930199711584	0	0	0
449.002253131	3.0	Pos	encoding	57	0.57	0.5594713656387665	1.6957341499983158	0.3919597639978747	0	0	0
452.502743595	3.0	Pos	marking	57	0.57	0.5594713656387665	1.6957341499983158	0.3919597639978747	0	0	0
460.001713708	3.0	Pos	encoding	77	0.77	0.7709251101321586	2.0628648929996416	0.34879246200216585	0	0	0
465.003014165	3.0	Pos	marking	77	0.77	0.7709251101321586	2.0628648929996416	0.34879246200216585	0	0	0
471.001186769	3.0	Pos	encoding	36	0.36	0.0	NaN	0.438906315001077	0	0	0
475.503377151	3.0	Pos	marking	36	0.36	0.0	NaN	0.438906315001077	1	0	0
485.501811905	3.0	Pos	encoding	45	0.45	0.6585903083700441	2.29453807200116	0.7057702210004209	0	1	0
488.503664794	3.0	Pos	marking	45	0.45	0.6585903083700441	2.29453807200116	0.7057702210004209	0	1	0
498.001413429	3.0	Pos	encoding	21	0.21	0.6123348017621145	2.142065233998437	0.39707495299808215	0	1	0
502.004266923	3.0	Pos	marking	21	0.21	0.6123348017621145	2.142065233998437	0.39707495299808215	0	1	0
510.503052703	3.0	Pos	encoding	98	0.98	1.0	1.828862450998713	0.33018169600109104	0	0	0
517.004418689	3.0	Pos	marking	98	0.98	1.0	1.828862450998713	0.33018169600109104	0	0	0
523.503132047	3.0	Pos	encoding	65	0.65	0.0	NaN	0.45306163399800425	0	0	0
527.504707578	3.0	Pos	marking	65	0.65	0.0	NaN	0.45306163399800425	1	0	0
534.002439742	3.0	Pos	encoding	85	0.85	0.8568281938325991	2.3956417060035164	0.33973513200180605	0	0	0
538.504806604	3.0	Pos	marking	85	0.85	0.8568281938325991	2.3956417060035164	0.33973513200180605	0	0	0
546.502150069	3.0	Pos	encoding	11	0.11	0.0	NaN	0.44734286200036877	0	0	0
553.505293586	3.0	Pos	marking	11	0.11	0.0	NaN	0.44734286200036877	1	0	0
560.002610499	3.0	Pos	encoding	74	0.74	0.8105726872246696	2.3291870700013533	0.49724175300070783	0	0	0
563.00555275	3.0	Pos	marking	74	0.74	0.8105726872246696	2.3291870700013533	0.49724175300070783	0	0	0
569.003202332	3.0	Pos	encoding	90	0.9	0.8370044052863436	1.9286459340000874	0.37633207399994717	0	0	0
575.005896082	3.0	Pos	marking	90	0.9	0.8370044052863436	1.9286459340000874	0.37633207399994717	0	0	0
582.001350287	3.0	Pos	encoding	28	0.28	0.30176211453744495	1.9286875180005154	0.4462210870005947	0	0	0
586.006073183	3.0	Pos	marking	28	0.28	0.30176211453744495	1.9286875180005154	0.4462210870005947	0	0	0
593.501493931	3.0	Pos	encoding	60	0.6	0.0	NaN	0.41768196200064267	0	0	0
597.006332112	3.0	Pos	marking	60	0.6	0.0	NaN	0.41768196200064267	1	0	0
