onset	duration	trial_type	phase	probe	line_pct	response	RT	RTHold	catch	missed	problem_trial
16.502759542	3.0	Word	encoding	by	0.9	0.9162995594713657	2.5691376340000716	0.41207464699982665	0	0	0
19.510976047	3.0	Word	marking	by	0.9	0.9162995594713657	2.5691376340000716	0.41207464699982665	0	0	0
25.50151797	3.0	Word	encoding	do	0.11	0.11013215859030837	1.9579328899999382	0.3582689150025544	0	0	0
28.511342368	3.0	Word	marking	do	0.11	0.11013215859030837	1.9579328899999382	0.3582689150025544	0	0	0
38.002257361	3.0	Word	encoding	it	0.33	0.33480176211453744	1.6276552630006336	0.3569227209991368	0	0	0
41.511667524	3.0	Word	marking	it	0.33	0.33480176211453744	1.6276552630006336	0.3569227209991368	0	0	0
48.501229546	3.0	Word	encoding	ox	0.28	0.2621145374449339	2.211066337997181	0.3698319699979038	0	0	0
52.511959885	3.0	Word	marking	ox	0.28	0.2621145374449339	2.211066337997181	0.3698319699979038	0	0	0
61.501632614	3.0	Word	encoding	my	0.45	0.42070484581497797	1.709508783002093	0.6917680030019255	0	0	0
65.51242271	3.0	Word	marking	my	0.45	0.42070484581497797	1.709508783002093	0.6917680030019255	0	0	0
73.502389071	3.0	Word	encoding	he	0.36	0.36123348017621143	1.5956978009999148	0.3936071099997207	0	0	0
77.512508316	3.0	Word	marking	he	0.36	0.36123348017621143	1.5956978009999148	0.3936071099997207	0	0	0
87.501017344	3.0	Word	encoding	of	0.57	0.0	NaN	0.3631555770007253	0	0	0
94.513187454	3.0	Word	marking	of	0.57	0.0	NaN	0.3631555770007253	1	0	0
100.501579241	3.0	Word	encoding	if	0.03	0.0	NaN	0.3447922710001876	0	0	0
106.013158046	3.0	Word	marking	if	0.03	0.0	NaN	0.3447922710001876	1	0	0
114.502356615	3.0	Word	encoding	is	0.07	0.06387665198237885	2.592530411999178	0.45039346599878627	0	0	0
118.013621044	3.0	Word	marking	is	0.07	0.06387665198237885	2.592530411999178	0.45039346599878627	0	0	0
124.502521853	3.0	Word	encoding	as	0.21	0.0	NaN	0.37215485400156467	0	0	0
129.014086634	3.0	Word	marking	as	0.21	0.0	NaN	0.37215485400156467	1	0	0
136.502328801	3.0	Word	encoding	so	0.85	0.8568281938325991	2.2097601979985484	0.3720436809999228	0	0	0
142.514249529	3.0	Word	marking	so	0.85	0.8568281938325991	2.2097601979985484	0.3720436809999228	0	0	0
149.001706471	3.0	Word	encoding	or	0.65	0.6387665198237885	1.575939575999655	0.3855161589999625	0	0	0
152.514741023	3.0	Word	marking	or	0.65	0.6387665198237885	1.575939575999655	0.3855161589999625	0	0	0
160.002591477	3.0	Word	encoding	we	0.6	0.0	NaN	0.3537873799978115	0	1	0
166.514897756	3.0	Word	marking	we	0.6	0.0	NaN	0.3537873799978115	0	1	0
173.501918688	3.0	Word	encoding	am	0.98	1.0	2.4596242120023817	0.5198509640031261	0	0	0
178.015349923	3.0	Word	marking	am	0.98	1.0	2.4596242120023817	0.5198509640031261	0	0	0
185.001130188	3.0	Word	encoding	me	0.77	0.0	NaN	0.3744002429993998	0	0	0
190.015581461	3.0	Word	marking	me	0.77	0.0	NaN	0.3744002429993998	1	0	0
196.501776983	3.0	Word	encoding	be	0.74	0.751101321585903	1.9455444450031791	0.3331306050022249	0	0	0
201.015768382	3.0	Word	marking	be	0.74	0.751101321585903	1.9455444450031791	0.3331306050022249	0	0	0
204.0	6.0	break	break	NaN	NaN	NaN	NaN	NaN	NaN	NaN	NaN
217.002711074	3.0	Pos	encoding	3	0.03	0.0	NaN	0.35148162100085756	0	0	0
220.599452398	3.0	Pos	marking	3	0.03	0.0	NaN	0.35148162100085756	1	0	0
229.501933957	3.0	Pos	encoding	45	0.45	0.0	NaN	0.4683169199997792	0	0	0
233.51664745	3.0	Pos	marking	45	0.45	0.0	NaN	0.4683169199997792	1	0	0
240.502153041	3.0	Pos	encoding	77	0.77	0.724669603524229	2.1912788979971083	0.43422890299916617	0	0	0
243.500204251	3.0	Pos	marking	77	0.77	0.724669603524229	2.1912788979971083	0.43422890299916617	0	0	0
253.001912986	3.0	Pos	encoding	60	0.6	0.5726872246696035	1.862082736002776	0.8622853410015523	0	0	0
257.500577725	3.0	Pos	marking	60	0.6	0.5726872246696035	1.862082736002776	0.8622853410015523	0	0	0
265.001166381	3.0	Pos	encoding	36	0.36	0.41409691629955947	2.493049245000293	0.35463450899987947	0	0	0
271.001027192	3.0	Pos	marking	36	0.36	0.41409691629955947	2.493049245000293	0.35463450899987947	0	0	0
279.00089814	3.0	Pos	encoding	21	0.21	0.0	NaN	0.34770926300188876	0	0	0
282.501235478	3.0	Pos	marking	21	0.21	0.0	NaN	0.34770926300188876	1	0	0
290.001597498	3.0	Pos	encoding	11	0.11	0.10352422907488987	2.4615900790013256	0.3498201229995175	0	0	0
294.5015304	3.0	Pos	marking	11	0.11	0.10352422907488987	2.4615900790013256	0.3498201229995175	0	0	0
303.001383235	3.0	Pos	encoding	74	0.74	0.711453744493392	1.8290480000032403	0.4001348310011963	0	0	0
310.001906728	3.0	Pos	marking	74	0.74	0.711453744493392	1.8290480000032403	0.4001348310011963	0	0	0
317.001176182	3.0	Pos	encoding	85	0.85	0.8370044052863436	2.495447019002313	0.5556807280008798	0	0	0
321.002088923	3.0	Pos	marking	85	0.85	0.8370044052863436	2.495447019002313	0.5556807280008798	0	0	0
328.501871387	3.0	Pos	encoding	28	0.28	0.2555066079295154	1.977181294001639	0.5547292420014855	0	0	0
332.50266654	3.0	Pos	marking	28	0.28	0.2555066079295154	1.977181294001639	0.5547292420014855	0	0	0
339.000971841	3.0	Pos	encoding	57	0.57	0.539647577092511	1.4930503239993413	0.5342683349990693	0	0	0
343.50289055	3.0	Pos	marking	57	0.57	0.539647577092511	1.4930503239993413	0.5342683349990693	0	0	0
350.001350354	3.0	Pos	encoding	90	0.9	0.9559471365638766	2.5954036969997105	0.4869445149997773	0	0	0
353.503024195	3.0	Pos	marking	90	0.9	0.9559471365638766	2.5954036969997105	0.4869445149997773	0	0	0
359.50218824	3.0	Pos	encoding	7	0.07	0.024229074889867842	2.2121096320006473	0.3894291450014862	0	0	0
366.003388433	3.0	Pos	marking	7	0.07	0.024229074889867842	2.2121096320006473	0.3894291450014862	0	0	0
373.001997598	3.0	Pos	encoding	65	0.65	0.579295154185022	1.644892782001989	0.4699245250012609	0	0	0
376.003602381	3.0	Pos	marking	65	0.65	0.579295154185022	1.644892782001989	0.4699245250012609	0	0	0
382.500961605	3.0	Pos	encoding	33	0.33	0.0	NaN	0.34740829300062614	0	0	0
388.003730675	3.0	Pos	marking	33	0.33	0.0	NaN	0.34740829300062614	1	0	0
394.001253346	3.0	Pos	encoding	98	0.98	1.0	2.292404550000356	0.38855547399725765	0	0	0
399.004329537	3.0	Pos	marking	98	0.98	1.0	2.292404550000356	0.38855547399725765	0	0	0
402.0	6.0	break	break	NaN	NaN	NaN	NaN	NaN	NaN	NaN	NaN
411.500871535	3.0	Neg	encoding	14	0.57	0.42731277533039647	1.357319845003076	0.3953832860024704	0	1	0
415.004653768	3.0	Neg	marking	14	0.57	0.42731277533039647	1.357319845003076	0.3953832860024704	0	1	0
421.002894776	3.0	Neg	encoding	48	0.74	0.711453744493392	2.1955326219976996	0.4030976489993918	0	0	0
424.504803709	3.0	Neg	marking	48	0.74	0.711453744493392	2.1955326219976996	0.4030976489993918	0	0	0
431.502028822	3.0	Neg	encoding	70	0.85	0.8171806167400881	1.8117118469999696	0.3723648769991996	0	0	0
434.505101656	3.0	Neg	marking	70	0.85	0.8171806167400881	1.8117118469999696	0.3723648769991996	0	0	0
444.501201398	3.0	Neg	encoding	-94	0.03	0.030837004405286344	1.7421941319989855	0.342318659000739	0	0	0
449.005615476	3.0	Neg	marking	-94	0.03	0.030837004405286344	1.7421941319989855	0.342318659000739	0	0	0
456.50136883	3.0	Neg	encoding	96	0.98	0.9625550660792952	1.9794499019990326	0.338579564999236	0	0	0
462.02233134	3.0	Neg	marking	96	0.98	0.9625550660792952	1.9794499019990326	0.338579564999236	0	0	0
468.502610374	3.0	Neg	encoding	-86	0.07	0.06387665198237885	2.7268786530003126	0.48997229499946116	0	0	0
472.506119401	3.0	Neg	marking	-86	0.07	0.06387665198237885	2.7268786530003126	0.48997229499946116	0	0	0
480.502445537	3.0	Neg	encoding	80	0.9	0.8436123348017621	2.1956679340000846	0.4776476459992409	0	0	0
484.506296237	3.0	Neg	marking	80	0.9	0.8436123348017621	2.1956679340000846	0.4776476459992409	0	0	0
490.501171387	3.0	Neg	encoding	30	0.65	0.6321585903083701	1.9607950790014002	0.37089639400073793	0	0	0
497.006733935	3.0	Neg	marking	30	0.65	0.6321585903083701	1.9607950790014002	0.37089639400073793	0	0	0
505.501737371	3.0	Neg	encoding	20	0.6	0.0	NaN	0.49167154599854257	0	0	0
510.007014427	3.0	Neg	marking	20	0.6	0.0	NaN	0.49167154599854257	1	0	0
517.001631069	3.0	Neg	encoding	-78	0.11	0.0	NaN	0.37843678100034595	0	0	0
521.007435319	3.0	Neg	marking	-78	0.11	0.0	NaN	0.37843678100034595	1	0	0
530.502207906	3.0	Neg	encoding	-28	0.36	0.0	NaN	0.3735850470002333	0	0	0
536.507663761	3.0	Neg	marking	-28	0.36	0.0	NaN	0.3735850470002333	1	0	0
545.501596148	3.0	Neg	encoding	-44	0.28	0.2621145374449339	1.99549811900215	0.7050355150022369	0	0	0
548.508018286	3.0	Neg	marking	-44	0.28	0.2621145374449339	1.99549811900215	0.7050355150022369	0	0	0
555.501401736	3.0	Neg	encoding	-58	0.21	0.0	NaN	0.5691641859993979	0	0	0
559.008272371	3.0	Neg	marking	-58	0.21	0.0	NaN	0.5691641859993979	1	0	0
566.502549936	3.0	Neg	encoding	-10	0.45	0.44052863436123346	1.395479292001255	0.35235457100134226	0	0	0
571.008540098	3.0	Neg	marking	-10	0.45	0.44052863436123346	1.395479292001255	0.35235457100134226	0	0	0
578.502048591	3.0	Neg	encoding	-34	0.33	0.31497797356828194	1.3451317910003127	0.3075557580013992	0	0	0
585.508908748	3.0	Neg	marking	-34	0.33	0.31497797356828194	1.3451317910003127	0.3075557580013992	0	0	0
592.002436855	3.0	Neg	encoding	54	0.77	0.737885462555066	1.9289359750000585	0.38186226000107126	0	0	0
597.009177202	3.0	Neg	marking	54	0.77	0.737885462555066	1.9289359750000585	0.38186226000107126	0	0	0
