onset	duration	trial_type	phase	probe	line_pct	response	RT	RTHold	catch	missed	problem_trial
15.002453537	3.0	Word	encoding	it	0.28	0.2621145374449339	2.244946491000519	0.6024097460003759	0	0	0
18.50433772	3.0	Word	marking	it	0.28	0.2621145374449339	2.244946491000519	0.6024097460003759	0	0	0
25.502589977	3.0	Word	encoding	me	0.21	0.22246696035242292	2.12602577799953	0.46465982899917435	0	0	0
31.00489751	3.0	Word	marking	me	0.21	0.22246696035242292	2.12602577799953	0.46465982899917435	0	0	0
38.502313306	3.0	Word	encoding	is	0.77	0.0	NaN	0.3296168890001354	0	0	0
43.005215022	3.0	Word	marking	is	0.77	0.0	NaN	0.3296168890001354	1	0	0
50.502578938	3.0	Word	encoding	by	0.03	0.024229074889867842	2.2258496040003592	0.36512739899990265	0	0	0
53.505435304	3.0	Word	marking	by	0.03	0.024229074889867842	2.2258496040003592	0.36512739899990265	0	0	0
61.501665481	3.0	Word	encoding	do	0.36	0.0	NaN	0.32898239199948875	0	0	0
67.505696328	3.0	Word	marking	do	0.36	0.0	NaN	0.32898239199948875	1	0	0
76.001681629	3.0	Word	encoding	am	0.74	0.7180616740088106	1.862886914000228	0.3256944949998797	0	0	0
82.506029717	3.0	Word	marking	am	0.74	0.7180616740088106	1.862886914000228	0.3256944949998797	0	0	0
89.502282415	3.0	Word	encoding	if	0.98	0.9691629955947136	2.7764147500001854	0.44721200999993016	0	0	0
93.00648852	3.0	Word	marking	if	0.98	0.9691629955947136	2.7764147500001854	0.44721200999993016	0	0	0
99.50220486	3.0	Word	encoding	my	0.9	0.0	NaN	0.46192367099956755	0	0	0
102.506774316	3.0	Word	marking	my	0.9	0.0	NaN	0.46192367099956755	1	0	0
109.002382466	3.0	Word	encoding	of	0.11	0.11674008810572688	2.5114536420005606	0.3086620510002831	0	0	0
114.006808307	3.0	Word	marking	of	0.11	0.11674008810572688	2.5114536420005606	0.3086620510002831	0	0	0
120.501629768	3.0	Word	encoding	he	0.33	0.32819383259911894	2.425922139999784	0.42545569499998237	0	0	0
124.507256332	3.0	Word	marking	he	0.33	0.32819383259911894	2.425922139999784	0.42545569499998237	0	0	0
131.502585103	3.0	Word	encoding	be	0.57	0.566079295154185	1.593802733999837	0.32050170000002254	0	0	0
135.50764417	3.0	Word	marking	be	0.57	0.566079295154185	1.593802733999837	0.32050170000002254	0	0	0
145.002023971	3.0	Word	encoding	so	0.45	0.45374449339207046	1.8286020149998876	0.3373609189993658	0	0	0
149.507652773	3.0	Word	marking	so	0.45	0.45374449339207046	1.8286020149998876	0.3373609189993658	0	0	0
157.002480636	3.0	Word	encoding	or	0.85	0.8436123348017621	2.25898436100033	0.3953158450003684	0	0	0
160.508314728	3.0	Word	marking	or	0.85	0.8436123348017621	2.25898436100033	0.3953158450003684	0	0	0
169.501937216	3.0	Word	encoding	ox	0.07	0.0	NaN	0.3538005990003512	0	0	0
176.508682896	3.0	Word	marking	ox	0.07	0.0	NaN	0.3538005990003512	1	0	0
182.501420802	3.0	Word	encoding	as	0.65	0.6519823788546255	1.7284159869996074	0.33582371099964803	0	0	0
186.508762982	3.0	Word	marking	as	0.65	0.6519823788546255	1.7284159869996074	0.33582371099964803	0	0	0
196.50249199	3.0	Word	encoding	we	0.6	0.5859030837004405	1.7591782570007126	0.32713148700077	0	0	0
201.009335479	3.0	Word	marking	we	0.6	0.5859030837004405	1.7591782570007126	0.32713148700077	0	0	0
204.0	6.0	break	break	NaN	NaN	NaN	NaN	NaN	NaN	NaN	NaN
216.444912144	3.0	Neg	encoding	48	0.74	0.0	NaN	0.386705412000083	0	0	0
222.509720732	3.0	Neg	marking	48	0.74	0.0	NaN	0.386705412000083	1	0	0
230.001681099	3.0	Neg	encoding	-94	0.03	0.030837004405286344	2.3592757329997767	0.33152143900042574	0	0	0
233.010115564	3.0	Neg	marking	-94	0.03	0.030837004405286344	2.3592757329997767	0.33152143900042574	0	0	0
240.003283247	3.0	Neg	encoding	70	0.85	0.8568281938325991	2.0125431520000348	0.34448985700055346	0	0	0
244.51022034	3.0	Neg	marking	70	0.85	0.8568281938325991	2.0125431520000348	0.34448985700055346	0	0	0
254.002293515	3.0	Neg	encoding	96	0.98	0.9889867841409692	1.9620639059994573	0.3117948459994295	0	0	0
258.010463718	3.0	Neg	marking	96	0.98	0.9889867841409692	1.9620639059994573	0.3117948459994295	0	0	0
266.002530551	3.0	Neg	encoding	80	0.9	0.9162995594713657	2.4286549349999405	0.3259053830006451	0	0	0
270.010927168	3.0	Neg	marking	80	0.9	0.9162995594713657	2.4286549349999405	0.3259053830006451	0	0	0
276.502314115	3.0	Neg	encoding	-58	0.21	0.2753303964757709	2.594382391000181	0.4145626319996154	0	0	0
281.002495944	3.0	Neg	marking	-58	0.21	0.2753303964757709	2.594382391000181	0.4145626319996154	0	0	0
291.002621465	3.0	Neg	encoding	-10	0.45	0.3876651982378855	1.511034414000278	0.33763973400073155	0	0	0
296.511696865	3.0	Neg	marking	-10	0.45	0.3876651982378855	1.511034414000278	0.33763973400073155	0	0	0
303.502495666	3.0	Neg	encoding	14	0.57	0.5925110132158591	2.0286608590004107	0.7964100429999235	0	0	0
307.01193384	3.0	Neg	marking	14	0.57	0.5925110132158591	2.0286608590004107	0.7964100429999235	0	0	0
313.502622701	3.0	Neg	encoding	-44	0.28	0.31497797356828194	1.8286995469998146	0.337984638999842	0	0	0
319.512303635	3.0	Neg	marking	-44	0.28	0.31497797356828194	1.8286995469998146	0.337984638999842	0	0	0
325.501663541	3.0	Neg	encoding	-86	0.07	0.08370044052863436	1.8929757200003223	0.3783943799999179	0	0	0
329.51267629	3.0	Neg	marking	-86	0.07	0.08370044052863436	1.8929757200003223	0.3783943799999179	0	0	0
336.501767274	3.0	Neg	encoding	30	0.65	0.0	NaN	0.3836992389997249	0	0	0
340.012761229	3.0	Neg	marking	30	0.65	0.0	NaN	0.3836992389997249	1	0	0
348.501364047	3.0	Neg	encoding	20	0.6	0.0	NaN	0.334409283000241	0	0	0
353.01312448	3.0	Neg	marking	20	0.6	0.0	NaN	0.334409283000241	1	0	0
360.501590298	3.0	Neg	encoding	-34	0.33	0.35462555066079293	2.4458369829999356	0.42329021400018974	0	0	0
365.513239359	3.0	Neg	marking	-34	0.33	0.35462555066079293	2.4458369829999356	0.42329021400018974	0	0	0
373.001621324	3.0	Neg	encoding	-78	0.11	0.0	NaN	0.41614559199933865	0	0	0
376.013630434	3.0	Neg	marking	-78	0.11	0.0	NaN	0.41614559199933865	1	0	0
382.002136053	3.0	Neg	encoding	54	0.77	0.751101321585903	1.9107500000000073	0.3850634979999086	0	0	0
385.513920876	3.0	Neg	marking	54	0.77	0.751101321585903	1.9107500000000073	0.3850634979999086	0	0	0
392.001548832	3.0	Neg	encoding	-28	0.36	0.35462555066079293	1.8422086809996472	0.27593277500000113	0	0	0
399.014486385	3.0	Neg	marking	-28	0.36	0.35462555066079293	1.8422086809996472	0.27593277500000113	0	0	0
402.0	6.0	break	break	NaN	NaN	NaN	NaN	NaN	NaN	NaN	NaN
412.501825166	3.0	Pos	encoding	65	0.65	0.0	NaN	0.2707324470002277	0	0	0
417.014674884	3.0	Pos	marking	65	0.65	0.0	NaN	0.2707324470002277	1	0	0
425.502916255	3.0	Pos	encoding	60	0.6	0.5726872246696035	2.5759959150000213	0.3275369889997819	0	0	0
430.515186696	3.0	Pos	marking	60	0.6	0.5726872246696035	2.5759959150000213	0.3275369889997819	0	0	0
436.502875996	3.0	Pos	encoding	3	0.03	0.0	2.1619567160005317	0.36578737600029854	0	0	0
440.015333308	3.0	Pos	marking	3	0.03	0.0	2.1619567160005317	0.36578737600029854	0	0	0
447.002223777	3.0	Pos	encoding	45	0.45	0.0	NaN	0.33875320199967973	0	0	0
454.000578385	3.0	Pos	marking	45	0.45	0.0	NaN	0.33875320199967973	1	0	0
461.501999821	3.0	Pos	encoding	74	0.74	0.0	NaN	0.4125382599995646	0	0	0
468.016290058	3.0	Pos	marking	74	0.74	0.0	NaN	0.4125382599995646	1	0	0
475.002580053	3.0	Pos	encoding	90	0.9	0.9295154185022027	2.308950710999852	0.5679157249996933	0	0	0
478.516597577	3.0	Pos	marking	90	0.9	0.9295154185022027	2.308950710999852	0.5679157249996933	0	0	0
488.502237243	3.0	Pos	encoding	28	0.28	0.2753303964757709	1.9951172830005817	0.3641497320004419	0	0	0
492.000267955	3.0	Pos	marking	28	0.28	0.2753303964757709	1.9951172830005817	0.3641497320004419	0	0	0
499.003371081	3.0	Pos	encoding	77	0.77	0.7709251101321586	1.576102085000457	0.3303716800000984	0	0	0
504.500410363	3.0	Pos	marking	77	0.77	0.7709251101321586	1.576102085000457	0.3303716800000984	0	0	0
512.002809476	3.0	Pos	encoding	11	0.11	0.06387665198237885	2.5447053400002915	0.31205335300001025	0	0	0
518.000650789	3.0	Pos	marking	11	0.11	0.06387665198237885	2.5447053400002915	0.31205335300001025	0	0	0
527.502649334	3.0	Pos	encoding	33	0.33	0.36123348017621143	1.858842757000275	0.3630453490004584	0	0	0
530.501294228	3.0	Pos	marking	33	0.33	0.36123348017621143	1.858842757000275	0.3630453490004584	0	0	0
537.00179493	3.0	Pos	encoding	98	0.98	1.0	1.5253404770000998	0.37891699400006473	0	0	0
541.501521111	3.0	Pos	marking	98	0.98	1.0	1.5253404770000998	0.37891699400006473	0	0	0
548.002351128	3.0	Pos	encoding	7	0.07	0.030837004405286344	2.2624805779996677	0.3165934999997262	0	0	0
552.001655902	3.0	Pos	marking	7	0.07	0.030837004405286344	2.2624805779996677	0.3165934999997262	0	0	0
561.002196927	3.0	Pos	encoding	21	0.21	0.2092511013215859	2.039876370999991	0.3836941999998089	0	0	0
565.002195166	3.0	Pos	marking	21	0.21	0.2092511013215859	2.039876370999991	0.3836941999998089	0	0	0
571.502140476	3.0	Pos	encoding	85	0.85	0.8898678414096917	2.6427697899998748	0.38998759600053745	0	0	0
574.502383042	3.0	Pos	marking	85	0.85	0.8898678414096917	2.6427697899998748	0.38998759600053745	0	0	0
582.501407861	3.0	Pos	encoding	36	0.36	0.31497797356828194	1.9112339679995785	0.3487364789998537	0	0	0
587.002545631	3.0	Pos	marking	36	0.36	0.31497797356828194	1.9112339679995785	0.3487364789998537	0	0	0
593.001793384	3.0	Pos	encoding	57	0.57	0.0	NaN	0.33842877999995835	0	0	0
597.002727451	3.0	Pos	marking	57	0.57	0.0	NaN	0.33842877999995835	1	0	0
