onset	duration	trial_type	phase	probe	line_pct	response	RT	RTHold	catch	missed	problem_trial
15.505170609	3.0	Word	encoding	do	0.65	0.0	NaN	0.5960565259993018	0	0	0
19.501248753	3.0	Word	marking	do	0.65	0.0	NaN	0.5960565259993018	1	0	0
29.004414904	3.0	Word	encoding	as	0.74	0.7444933920704846	1.8939496829989366	0.4135709849997511	0	0	0
35.001601627	3.0	Word	marking	as	0.74	0.7444933920704846	1.8939496829989366	0.4135709849997511	0	0	0
42.005551033	3.0	Word	encoding	me	0.77	0.7577092511013216	2.3109372459985025	0.5283516429990414	0	0	0
48.501940522	3.0	Word	marking	me	0.77	0.7577092511013216	2.3109372459985025	0.5283516429990414	0	0	0
54.50299231	3.0	Word	encoding	my	0.6	0.5925110132158591	1.9427838009996776	0.7654155950003769	0	0	0
59.002413841	3.0	Word	marking	my	0.6	0.5925110132158591	1.9427838009996776	0.7654155950003769	0	0	0
65.503088822	3.0	Word	encoding	is	0.28	0.2753303964757709	2.0265308790003473	0.621495342000344	0	0	0
69.002671334	3.0	Word	marking	is	0.28	0.2753303964757709	2.0265308790003473	0.621495342000344	0	0	0
76.503093349	3.0	Word	encoding	am	0.11	0.12334801762114538	2.115002750999338	0.535395951999817	0	0	0
80.002617218	3.0	Word	marking	am	0.11	0.12334801762114538	2.115002750999338	0.535395951999817	0	0	0
90.004379414	3.0	Word	encoding	he	0.33	0.32819383259911894	1.9223376190002455	0.4729480660007539	0	0	0
93.005734323	3.0	Word	marking	he	0.33	0.32819383259911894	1.9223376190002455	0.4729480660007539	0	0	0
100.504772798	3.0	Word	encoding	so	0.07	0.07709251101321586	2.6260925349997706	0.48537005800062616	0	0	0
105.003533568	3.0	Word	marking	so	0.07	0.07709251101321586	2.6260925349997706	0.48537005800062616	0	0	0
112.502250227	3.0	Word	encoding	we	0.36	0.0	NaN	0.5785616040011519	0	0	0
116.003840344	3.0	Word	marking	we	0.36	0.0	NaN	0.5785616040011519	1	0	0
125.004085132	3.0	Word	encoding	ox	0.03	0.0	NaN	0.4613064959994517	0	0	0
129.004050249	3.0	Word	marking	ox	0.03	0.0	NaN	0.4613064959994517	1	0	0
137.503920931	3.0	Word	encoding	if	0.45	0.44713656387665196	1.548928756999885	0.4166157170002407	0	0	0
141.521283094	3.0	Word	marking	if	0.45	0.44713656387665196	1.548928756999885	0.4166157170002407	0	0	0
148.004671785	3.0	Word	encoding	by	0.21	0.0	NaN	0.3689251449995936	0	0	0
153.507436013	3.0	Word	marking	by	0.21	0.0	NaN	0.3689251449995936	1	0	0
161.502713459	3.0	Word	encoding	of	0.98	0.9889867841409692	2.8252221399998234	0.6908608029989409	0	0	0
164.507655278	3.0	Word	marking	of	0.98	0.9889867841409692	2.8252221399998234	0.6908608029989409	0	0	0
171.503396138	3.0	Word	encoding	it	0.85	0.8436123348017621	2.393448703998729	0.3760170419991482	0	0	0
178.505518479	3.0	Word	marking	it	0.85	0.8436123348017621	2.393448703998729	0.3760170419991482	0	0	0
184.502656772	3.0	Word	encoding	be	0.57	0.5726872246696035	1.4116524410001148	0.3744176830005017	0	0	0
189.505600462	3.0	Word	marking	be	0.57	0.5726872246696035	1.4116524410001148	0.3744176830005017	0	0	0
196.503704907	3.0	Word	encoding	or	0.9	0.8832599118942731	2.2277241369993135	0.47216761100025906	0	0	0
201.00610275	3.0	Word	marking	or	0.9	0.8832599118942731	2.2277241369993135	0.47216761100025906	0	0	0
204.0	6.0	break	break	NaN	NaN	NaN	NaN	NaN	NaN	NaN	NaN
214.501668862	3.0	Pos	encoding	65	0.65	0.0	NaN	0.3248477790002653	0	0	0
220.506560972	3.0	Pos	marking	65	0.65	0.0	NaN	0.3248477790002653	1	0	0
227.503063415	3.0	Pos	encoding	85	0.85	0.8370044052863436	2.615838611000072	0.4298688870003389	0	0	0
232.507019929	3.0	Pos	marking	85	0.85	0.8370044052863436	2.615838611000072	0.4298688870003389	0	0	0
239.002672965	3.0	Pos	encoding	60	0.6	0.6057268722466961	2.0865162890004285	0.4783406059996196	0	0	0
244.515179571	3.0	Pos	marking	60	0.6	0.6057268722466961	2.0865162890004285	0.4783406059996196	0	0	0
252.503157946	3.0	Pos	encoding	45	0.45	0.0	NaN	0.41529005200027314	0	0	0
256.00990067	3.0	Pos	marking	45	0.45	0.0	NaN	0.41529005200027314	1	0	0
263.002177996	3.0	Pos	encoding	33	0.33	0.36784140969163	2.1397160689994053	0.5468687219999993	0	0	0
267.012034477	3.0	Pos	marking	33	0.33	0.36784140969163	2.1397160689994053	0.5468687219999993	0	0	0
273.003816185	3.0	Pos	encoding	77	0.77	0.737885462555066	2.459440134000033	0.5075912499996775	0	0	0
277.008153435	3.0	Pos	marking	77	0.77	0.737885462555066	2.459440134000033	0.5075912499996775	0	0	0
284.504186345	3.0	Pos	encoding	90	0.9	0.9361233480176211	2.0945328130001144	0.3651303269998607	0	0	0
288.008425022	3.0	Pos	marking	90	0.9	0.9361233480176211	2.0945328130001144	0.3651303269998607	0	0	0
297.502913073	3.0	Pos	encoding	98	0.98	0.5	1.375902853000298	0.41835759099922143	0	1	0
302.625483755	3.0	Pos	marking	98	0.98	0.5	1.375902853000298	0.41835759099922143	0	1	1
309.00377989	3.0	Pos	encoding	21	0.21	0.30176211453744495	2.7990849720008555	0.5537080510002852	0	0	0
312.009125322	3.0	Pos	marking	21	0.21	0.30176211453744495	2.7990849720008555	0.5537080510002852	0	0	0
321.003465293	3.0	Pos	encoding	7	0.07	0.09030837004405286	2.0270859740012384	0.3864137069995195	0	0	0
328.00953657	3.0	Pos	marking	7	0.07	0.09030837004405286	2.0270859740012384	0.3864137069995195	0	0	0
338.002709091	3.0	Pos	encoding	28	0.28	0.28854625550660795	2.1917690220016084	0.6178700880009274	0	0	0
341.009927067	3.0	Pos	marking	28	0.28	0.28854625550660795	2.1917690220016084	0.6178700880009274	0	0	0
347.505282985	3.0	Pos	encoding	36	0.36	0.0	NaN	0.5659161849998782	0	0	0
352.010210588	3.0	Pos	marking	36	0.36	0.0	NaN	0.5659161849998782	1	0	0
358.504439433	3.0	Pos	encoding	57	0.57	0.6387665198237885	2.500808992999737	0.421615187999123	0	0	0
363.010370353	3.0	Pos	marking	57	0.57	0.6387665198237885	2.500808992999737	0.421615187999123	0	0	0
370.502519495	3.0	Pos	encoding	3	0.03	0.030837004405286344	2.0898179460000392	0.38469271099893376	0	0	0
374.52108572	3.0	Pos	marking	3	0.03	0.030837004405286344	2.0898179460000392	0.38469271099893376	0	0	0
380.502812864	3.0	Pos	encoding	11	0.11	0.0	NaN	0.44919950399889785	0	0	0
387.017014102	3.0	Pos	marking	11	0.11	0.0	NaN	0.44919950399889785	1	0	0
395.5031951	3.0	Pos	encoding	74	0.74	0.711453744493392	2.039915133998875	0.8434309770000255	0	0	0
399.015547984	3.0	Pos	marking	74	0.74	0.711453744493392	2.039915133998875	0.8434309770000255	0	0	0
402.0	6.0	break	break	NaN	NaN	NaN	NaN	NaN	NaN	NaN	NaN
412.003059091	3.0	Neg	encoding	-58	0.21	0.28854625550660795	1.7328998129996762	0.4395224669988238	0	0	0
416.011711445	3.0	Neg	marking	-58	0.21	0.28854625550660795	1.7328998129996762	0.4395224669988238	0	0	0
422.004222989	3.0	Neg	encoding	30	0.65	0.6189427312775331	1.7093138529999123	0.4242483039997751	0	0	0
426.518427061	3.0	Neg	marking	30	0.65	0.6189427312775331	1.7093138529999123	0.4242483039997751	0	0	0
434.002808785	3.0	Neg	encoding	96	0.98	0.0	NaN	0.45931247499902383	0	0	0
438.500231576	3.0	Neg	marking	96	0.98	0.0	NaN	0.45931247499902383	1	0	0
447.003257759	3.0	Neg	encoding	54	0.77	0.7444933920704846	2.0424660480002785	0.483650382999258	0	0	0
451.013022441	3.0	Neg	marking	54	0.77	0.7444933920704846	2.0424660480002785	0.483650382999258	0	0	0
460.003080722	3.0	Neg	encoding	-44	0.28	0.32158590308370044	2.586612535000313	0.5220322770001076	0	0	0
463.513049752	3.0	Neg	marking	-44	0.28	0.32158590308370044	2.586612535000313	0.5220322770001076	0	0	0
470.003333476	3.0	Neg	encoding	-94	0.03	0.01762114537444934	2.0428719890005596	0.4383276799999294	0	0	0
473.513404602	3.0	Neg	marking	-94	0.03	0.01762114537444934	2.0428719890005596	0.4383276799999294	1	0	0
480.004501109	3.0	Neg	encoding	-34	0.33	0.33480176211453744	2.009751755000252	0.6220864030001394	0	0	0
483.013705487	3.0	Neg	marking	-34	0.33	0.33480176211453744	2.009751755000252	0.6220864030001394	0	0	0
490.005649804	3.0	Neg	encoding	20	0.6	0.6519823788546255	2.332568836998689	0.3857649989986385	0	0	0
497.014163669	3.0	Neg	marking	20	0.6	0.6519823788546255	2.332568836998689	0.3857649989986385	0	0	0
507.006092567	3.0	Neg	encoding	-78	0.11	0.12334801762114538	2.492853632000333	0.35735409100016113	0	0	0
513.514607916	3.0	Neg	marking	-78	0.11	0.12334801762114538	2.492853632000333	0.35735409100016113	0	0	0
521.001958046	3.0	Neg	encoding	14	0.57	0.566079295154185	2.849594111001352	0.5787347840014263	0	0	0
525.514843024	3.0	Neg	marking	14	0.57	0.566079295154185	2.849594111001352	0.5787347840014263	0	0	0
533.00410966	3.0	Neg	encoding	80	0.9	0.8700440528634361	2.4157180310012336	0.4787020920011855	0	0	0
537.015084592	3.0	Neg	marking	80	0.9	0.8700440528634361	2.4157180310012336	0.4787020920011855	0	0	0
543.505684176	3.0	Neg	encoding	-10	0.45	0.0	NaN	0.5844648910006072	0	0	0
549.023372115	3.0	Neg	marking	-10	0.45	0.0	NaN	0.5844648910006072	1	0	0
555.003208177	3.0	Neg	encoding	70	0.85	0.8105726872246696	2.7801162870000553	0.6711262879998685	0	0	0
558.032578081	3.0	Neg	marking	70	0.85	0.8105726872246696	2.7801162870000553	0.6711262879998685	0	0	0
566.003669875	3.0	Neg	encoding	-28	0.36	0.0	NaN	0.5547620999986975	0	0	0
569.520295083	3.0	Neg	marking	-28	0.36	0.0	NaN	0.5547620999986975	1	0	0
579.004143734	3.0	Neg	encoding	48	0.74	0.7048458149779736	2.1429622209998342	0.3886124489999929	0	0	0
585.016523471	3.0	Neg	marking	48	0.74	0.7048458149779736	2.1429622209998342	0.3886124489999929	0	0	0
592.002712209	3.0	Neg	encoding	-86	0.07	0.14317180616740088	2.9803428430004715	0.6614198770002986	0	0	0
597.000259041	3.0	Neg	marking	-86	0.07	0.14317180616740088	2.9803428430004715	0.6614198770002986	0	0	0
