onset	duration	trial_type	phase	probe	line_pct	response	RT	RTHold	catch	missed	problem_trial
15.001904474	3.0	Word	encoding	by	0.36	0.34801762114537443	1.6362766140009626	0.46897841499958304	0	0	0
18.003566783	3.0	Word	marking	by	0.36	0.34801762114537443	1.6362766140009626	0.46897841499958304	0	0	0
25.500830043	3.0	Word	encoding	is	0.77	0.7775330396475771	2.175802196999939	0.47074953599985747	0	0	0
29.503882992	3.0	Word	marking	is	0.77	0.7775330396475771	2.175802196999939	0.47074953599985747	0	0	0
37.001969196	3.0	Word	encoding	we	0.85	0.0	NaN	0.34330313700047554	0	0	0
41.004120724	3.0	Word	marking	we	0.85	0.0	NaN	0.34330313700047554	1	0	0
47.501307457	3.0	Word	encoding	as	0.11	0.0	NaN	0.3584424130003754	0	0	0
51.004511394	3.0	Word	marking	as	0.11	0.0	NaN	0.3584424130003754	1	0	0
60.501879255	3.0	Word	encoding	of	0.9	0.0	NaN	0.40104043999963324	0	0	0
64.504994562	3.0	Word	marking	of	0.9	0.0	NaN	0.40104043999963324	1	0	0
71.501404011	3.0	Word	encoding	me	0.45	0.44052863436123346	1.54571959399982	0.39514575400062313	0	0	0
77.005166423	3.0	Word	marking	me	0.45	0.44052863436123346	1.54571959399982	0.39514575400062313	0	0	0
83.501864855	3.0	Word	encoding	if	0.74	0.0	NaN	0.4150198730003467	0	0	0
88.005457948	3.0	Word	marking	if	0.74	0.0	NaN	0.4150198730003467	1	0	0
96.500814691	3.0	Word	encoding	do	0.98	1.0	2.1125729640007194	0.41021752300002845	0	0	0
100.005824752	3.0	Word	marking	do	0.98	1.0	2.1125729640007194	0.41021752300002845	0	0	0
109.002366825	3.0	Word	encoding	he	0.6	0.5991189427312775	1.5294849070014607	0.3804665420011588	0	0	0
115.506007104	3.0	Word	marking	he	0.6	0.5991189427312775	1.5294849070014607	0.3804665420011588	0	0	0
123.001818381	3.0	Word	encoding	so	0.57	0.579295154185022	1.5117378089998965	0.36410319800052093	0	0	0
130.006562868	3.0	Word	marking	so	0.57	0.579295154185022	1.5117378089998965	0.36410319800052093	0	0	0
136.5012989	3.0	Word	encoding	am	0.21	0.2026431718061674	1.946034888000213	0.6394469259994366	0	0	0
141.006858894	3.0	Word	marking	am	0.21	0.2026431718061674	1.946034888000213	0.6394469259994366	0	0	0
148.001370393	3.0	Word	encoding	ox	0.03	0.004405286343612335	1.6124834839993127	0.3241213399996923	0	0	0
153.00722942	3.0	Word	marking	ox	0.03	0.004405286343612335	1.6124834839993127	0.3241213399996923	0	0	0
159.002139624	3.0	Word	encoding	it	0.65	0.6255506607929515	1.8620615499985433	0.6874265219994413	0	0	0
162.007469764	3.0	Word	marking	it	0.65	0.6255506607929515	1.8620615499985433	0.6874265219994413	0	0	0
170.002347897	3.0	Word	encoding	my	0.07	0.09030837004405286	1.894499560999975	0.34248470600141445	0	0	0
174.50781095	3.0	Word	marking	my	0.07	0.09030837004405286	1.894499560999975	0.34248470600141445	0	0	0
184.502003454	3.0	Word	encoding	be	0.33	0.33480176211453744	1.4117187579995516	0.4654690349998418	0	0	0
188.008154891	3.0	Word	marking	be	0.33	0.33480176211453744	1.4117187579995516	0.4654690349998418	0	0	0
195.001226754	3.0	Word	encoding	or	0.28	0.29515418502202645	1.461942080000881	0.33052595099979953	0	0	0
201.008476019	3.0	Word	marking	or	0.28	0.29515418502202645	1.461942080000881	0.33052595099979953	0	0	0
204.0	6.0	break	break	NaN	NaN	NaN	NaN	NaN	NaN	NaN	NaN
214.501418849	3.0	Neg	encoding	70	0.85	0.76431718061674	2.3373527430012473	0.3599911979999888	0	0	0
220.008940952	3.0	Neg	marking	70	0.85	0.76431718061674	2.3373527430012473	0.3599911979999888	0	0	0
229.002615523	3.0	Neg	encoding	-94	0.03	0.030837004405286344	2.0773657240006287	0.34812844099906215	0	0	0
236.00952485	3.0	Neg	marking	-94	0.03	0.030837004405286344	2.0773657240006287	0.34812844099906215	0	0	0
246.002038825	3.0	Neg	encoding	48	0.74	0.7312775330396476	1.7957170810004754	0.5063835720011411	0	0	0
250.009700801	3.0	Neg	marking	48	0.74	0.7312775330396476	1.7957170810004754	0.5063835720011411	0	0	0
256.001062291	3.0	Neg	encoding	-28	0.36	0.33480176211453744	1.9623904649997712	0.5702900670003146	0	0	0
259.009954242	3.0	Neg	marking	-28	0.36	0.33480176211453744	1.9623904649997712	0.5702900670003146	0	0	0
267.000998263	3.0	Neg	encoding	20	0.6	0.6189427312775331	1.745425635999709	0.44388046099993517	0	0	0
271.010275201	3.0	Neg	marking	20	0.6	0.6189427312775331	1.745425635999709	0.44388046099993517	0	0	0
277.50191589	3.0	Neg	encoding	-44	0.28	0.0	NaN	0.4785858430004737	0	0	0
281.01054653	3.0	Neg	marking	-44	0.28	0.0	NaN	0.4785858430004737	1	0	0
288.00149722	3.0	Neg	encoding	-58	0.21	0.2290748898678414	1.962614953999946	0.4865607709998585	0	0	0
294.010832897	3.0	Neg	marking	-58	0.21	0.2290748898678414	1.962614953999946	0.4865607709998585	0	0	0
300.000792595	3.0	Neg	encoding	14	0.57	0.5594713656387665	1.545332325000345	0.44535314600034326	0	0	0
305.011001061	3.0	Neg	marking	14	0.57	0.5594713656387665	1.545332325000345	0.44535314600034326	0	0	0
313.502319657	3.0	Neg	encoding	-86	0.07	0.0	NaN	0.5125959619999776	0	0	0
317.011587634	3.0	Neg	marking	-86	0.07	0.0	NaN	0.5125959619999776	1	0	0
324.001659628	3.0	Neg	encoding	80	0.9	0.8766519823788547	2.2964093790014886	0.42168020700046327	0	0	0
328.511793585	3.0	Neg	marking	80	0.9	0.8766519823788547	2.2964093790014886	0.42168020700046327	0	0	0
335.00114197	3.0	Neg	encoding	-78	0.11	0.0	NaN	0.5116007039996475	0	0	0
339.012034971	3.0	Neg	marking	-78	0.11	0.0	NaN	0.5116007039996475	1	0	0
346.50235396	3.0	Neg	encoding	-10	0.45	0.44713656387665196	2.208289355001398	0.6169128300007287	0	0	0
349.51246945	3.0	Neg	marking	-10	0.45	0.44713656387665196	2.208289355001398	0.6169128300007287	0	0	0
356.501169881	3.0	Neg	encoding	-34	0.33	0.33480176211453744	2.1262502610006777	0.4496539709998615	0	0	0
363.012648008	3.0	Neg	marking	-34	0.33	0.33480176211453744	2.1262502610006777	0.4496539709998615	0	0	0
369.501817865	3.0	Neg	encoding	96	0.98	1.0	2.010967031999826	0.3729084479982703	0	0	0
374.012919884	3.0	Neg	marking	96	0.98	1.0	2.010967031999826	0.3729084479982703	0	0	0
381.501787413	3.0	Neg	encoding	54	0.77	0.0	NaN	0.5021707189989684	0	0	0
385.013108191	3.0	Neg	marking	54	0.77	0.0	NaN	0.5021707189989684	1	0	0
394.501946389	3.0	Neg	encoding	30	0.65	0.6651982378854625	2.2293406859989773	0.4846384599986777	0	0	0
399.013542597	3.0	Neg	marking	30	0.65	0.6651982378854625	2.2293406859989773	0.4846384599986777	0	0	0
402.0	6.0	break	break	NaN	NaN	NaN	NaN	NaN	NaN	NaN	NaN
412.00283974	3.0	Pos	encoding	57	0.57	0.0	NaN	0.4221658119986387	0	0	0
418.014107335	3.0	Pos	marking	57	0.57	0.0	NaN	0.4221658119986387	1	0	0
427.002383046	3.0	Pos	encoding	11	0.11	0.08370044052863436	2.346286437001254	0.385043078000308	0	0	0
431.014314205	3.0	Pos	marking	11	0.11	0.08370044052863436	2.346286437001254	0.385043078000308	0	0	0
439.501527598	3.0	Pos	encoding	90	0.9	0.9096916299559471	2.2088899579994177	0.38410516699877917	0	0	0
444.514835286	3.0	Pos	marking	90	0.9	0.9096916299559471	2.2088899579994177	0.38410516699877917	0	0	0
454.002299491	3.0	Pos	encoding	60	0.6	0.6255506607929515	1.9624526980005612	0.5162898199996562	0	0	0
458.514998597	3.0	Pos	marking	60	0.6	0.6255506607929515	1.9624526980005612	0.5162898199996562	0	0	0
465.501177298	3.0	Pos	encoding	3	0.03	0.0	2.063043247000678	0.38706114100023115	0	0	0
471.015307844	3.0	Pos	marking	3	0.03	0.0	2.063043247000678	0.38706114100023115	0	0	0
478.002059105	3.0	Pos	encoding	74	0.74	0.7709251101321586	2.5106296429985377	0.4519524879997334	0	0	0
482.015721398	3.0	Pos	marking	74	0.74	0.7709251101321586	2.5106296429985377	0.4519524879997334	0	0	0
488.000980138	3.0	Pos	encoding	45	0.45	0.4801762114537445	1.7454335510010424	0.8169422000009945	0	0	0
491.515932588	3.0	Pos	marking	45	0.45	0.4801762114537445	1.7454335510010424	0.8169422000009945	0	0	0
499.001240432	3.0	Pos	encoding	77	0.77	0.7709251101321586	1.9767774979991373	0.4099226259986608	0	0	0
502.016200728	3.0	Pos	marking	77	0.77	0.7709251101321586	1.9767774979991373	0.4099226259986608	0	0	0
508.001229618	3.0	Pos	encoding	36	0.36	0.0	NaN	0.3366686179997487	0	0	0
512.016532611	3.0	Pos	marking	36	0.36	0.0	NaN	0.3366686179997487	1	0	0
519.502270742	3.0	Pos	encoding	33	0.33	0.32158590308370044	2.1428940579990012	0.4844322619992454	0	0	0
524.00014774	3.0	Pos	marking	33	0.33	0.32158590308370044	2.1428940579990012	0.4844322619992454	0	0	0
531.501924913	3.0	Pos	encoding	85	0.85	0.7577092511013216	2.0289694299990515	0.3338869569997769	0	0	0
538.500366508	3.0	Pos	marking	85	0.85	0.7577092511013216	2.0289694299990515	0.3338869569997769	0	0	0
545.001018117	3.0	Pos	encoding	65	0.65	0.0	NaN	0.48942393800098216	0	0	0
548.000737932	3.0	Pos	marking	65	0.65	0.0	NaN	0.48942393800098216	1	0	0
558.001467301	3.0	Pos	encoding	7	0.07	0.06387665198237885	2.161584536999726	0.46144708300016646	0	0	0
561.500956442	3.0	Pos	marking	7	0.07	0.06387665198237885	2.161584536999726	0.46144708300016646	0	0	0
569.50097127	3.0	Pos	encoding	21	0.21	0.1894273127753304	2.0283244809997996	0.40893817100004526	0	0	0
573.001247495	3.0	Pos	marking	21	0.21	0.1894273127753304	2.0283244809997996	0.40893817100004526	0	0	0
579.501818017	3.0	Pos	encoding	28	0.28	0.2026431718061674	1.8950796959998115	0.3716278609990695	0	0	0
584.001602599	3.0	Pos	marking	28	0.28	0.2026431718061674	1.8950796959998115	0.3716278609990695	0	0	0
590.501617021	3.0	Pos	encoding	98	0.98	0.0	NaN	0.3525067670016142	0	0	0
597.002046597	3.0	Pos	marking	98	0.98	0.0	NaN	0.3525067670016142	1	0	0
