onset	duration	trial_type	phase	probe	line_pct	response	RT	RTHold	catch	missed	problem_trial
17.001730047	3.0	Word	encoding	me	0.28	0.0	NaN	0.42345690399997693	0	0	0
20.014156084	3.0	Word	marking	me	0.28	0.0	NaN	0.42345690399997693	1	0	0
26.501830194	3.0	Word	encoding	am	0.65	0.0	NaN	0.37661014100012835	0	0	0
30.514218459	3.0	Word	marking	am	0.65	0.0	NaN	0.37661014100012835	1	0	0
38.00156614	3.0	Word	encoding	of	0.85	0.8436123348017621	2.4101228510007786	0.39874267500090355	0	0	0
41.514550771	3.0	Word	marking	of	0.85	0.8436123348017621	2.4101228510007786	0.39874267500090355	0	0	0
51.002276884	3.0	Word	encoding	by	0.21	0.21585903083700442	1.9617621460001828	0.31785644000046887	0	0	0
54.014914396	3.0	Word	marking	by	0.21	0.21585903083700442	1.9617621460001828	0.31785644000046887	0	0	0
61.001595529	3.0	Word	encoding	my	0.6	0.6189427312775331	2.309753343999546	0.35540468799990776	0	0	0
66.015333398	3.0	Word	marking	my	0.6	0.6189427312775331	2.309753343999546	0.35540468799990776	0	0	0
72.50174939	3.0	Word	encoding	ox	0.74	0.737885462555066	1.992849791999106	0.33701239899892244	0	0	0
77.015698729	3.0	Word	marking	ox	0.74	0.737885462555066	1.992849791999106	0.33701239899892244	0	0	0
83.001576711	3.0	Word	encoding	is	0.07	0.07709251101321586	2.6278277310011617	0.3836859610000829	0	0	0
90.015900338	3.0	Word	marking	is	0.07	0.07709251101321586	2.6278277310011617	0.3836859610000829	0	0	0
100.002826352	3.0	Word	encoding	we	0.03	0.0	NaN	0.37063370299983944	0	0	0
104.516279304	3.0	Word	marking	we	0.03	0.0	NaN	0.37063370299983944	1	0	0
112.002580296	3.0	Word	encoding	be	0.36	0.36784140969163	1.8120750880007108	0.39882983600000443	0	0	0
115.51663942	3.0	Word	marking	be	0.36	0.36784140969163	1.8120750880007108	0.39882983600000443	0	0	0
124.501878314	3.0	Word	encoding	it	0.57	0.579295154185022	2.426897150999139	0.7061850230002165	0	0	0
128.500461877	3.0	Word	marking	it	0.57	0.579295154185022	2.426897150999139	0.7061850230002165	0	0	0
136.001596747	3.0	Word	encoding	if	0.45	0.460352422907489	2.325727958999778	0.38438379599938344	0	0	0
139.500804743	3.0	Word	marking	if	0.45	0.460352422907489	2.325727958999778	0.38438379599938344	0	0	0
146.502315926	3.0	Word	encoding	or	0.9	0.8898678414096917	1.909581010999318	0.31573492600000463	0	0	0
152.501082443	3.0	Word	marking	or	0.9	0.8898678414096917	1.909581010999318	0.31573492600000463	0	0	0
161.001617951	3.0	Word	encoding	do	0.77	0.7709251101321586	2.5130047509992437	0.38072873999954027	0	0	0
166.501193977	3.0	Word	marking	do	0.77	0.7709251101321586	2.5130047509992437	0.38072873999954027	0	0	0
173.001524359	3.0	Word	encoding	as	0.98	0.0	NaN	0.378189322000253	0	1	0
179.501906893	3.0	Word	marking	as	0.98	0.0	NaN	0.378189322000253	0	1	0
186.501386509	3.0	Word	encoding	so	0.33	0.32158590308370044	2.110917332000099	0.3252114380011335	0	0	0
190.502079425	3.0	Word	marking	so	0.33	0.32158590308370044	2.110917332000099	0.3252114380011335	0	0	0
196.502231837	3.0	Word	encoding	he	0.11	0.0	NaN	0.28741612500016345	0	0	0
201.002500263	3.0	Word	marking	he	0.11	0.0	NaN	0.28741612500016345	1	0	0
204.0	6.0	break	break	NaN	NaN	NaN	NaN	NaN	NaN	NaN	NaN
216.002049416	3.0	Pos	encoding	45	0.45	0.44052863436123346	2.1257158579992392	0.31311443999948096	0	0	0
220.519624662	3.0	Pos	marking	45	0.45	0.44052863436123346	2.1257158579992392	0.31311443999948096	0	0	0
230.002181242	3.0	Pos	encoding	11	0.11	0.1762114537444934	2.4762309810012084	0.3371359749999101	0	0	0
236.503366644	3.0	Pos	marking	11	0.11	0.1762114537444934	2.4762309810012084	0.3371359749999101	0	0	0
244.001894276	3.0	Pos	encoding	74	0.74	0.7709251101321586	2.6753495180000755	0.42941480899935414	0	0	0
248.003651971	3.0	Pos	marking	74	0.74	0.7709251101321586	2.6753495180000755	0.42941480899935414	0	0	0
254.50135633	3.0	Pos	encoding	65	0.65	0.7048458149779736	2.624753679998321	0.41242069999861997	0	0	0
257.50405021	3.0	Pos	marking	65	0.65	0.7048458149779736	2.624753679998321	0.41242069999861997	0	0	0
264.001994411	3.0	Pos	encoding	21	0.21	0.0	NaN	0.44229882699983136	0	0	0
267.504185905	3.0	Pos	marking	21	0.21	0.0	NaN	0.44229882699983136	1	0	0
273.501279172	3.0	Pos	encoding	57	0.57	0.566079295154185	2.1959817899987684	0.43743296899992856	0	0	0
278.004286609	3.0	Pos	marking	57	0.57	0.566079295154185	2.1959817899987684	0.43743296899992856	0	0	0
286.50201831	3.0	Pos	encoding	36	0.36	0.22246696035242292	2.6291939500006265	0.44073648499943374	0	1	0
291.504833955	3.0	Pos	marking	36	0.36	0.22246696035242292	2.6291939500006265	0.44073648499943374	0	1	0
301.501533261	3.0	Pos	encoding	60	0.6	0.0	NaN	0.4271131019995664	0	0	0
306.005351854	3.0	Pos	marking	60	0.6	0.0	NaN	0.4271131019995664	1	0	0
312.001319119	3.0	Pos	encoding	33	0.33	0.0	NaN	0.3306609279989061	0	0	0
315.505668045	3.0	Pos	marking	33	0.33	0.0	NaN	0.3306609279989061	1	0	0
323.501474261	3.0	Pos	encoding	3	0.03	0.024229074889867842	2.359148069001094	0.3255931200001214	0	0	0
327.50596721	3.0	Pos	marking	3	0.03	0.024229074889867842	2.359148069001094	0.3255931200001214	0	0	0
334.502074704	3.0	Pos	encoding	28	0.28	0.0	NaN	0.4019207090004784	0	1	0
340.006178138	3.0	Pos	marking	28	0.28	0.0	NaN	0.4019207090004784	0	1	0
347.502304031	3.0	Pos	encoding	90	0.9	0.8502202643171806	2.1095022530007554	0.4780540470001142	0	0	0
350.50654548	3.0	Pos	marking	90	0.9	0.8502202643171806	2.1095022530007554	0.4780540470001142	0	0	0
358.00128874	3.0	Pos	encoding	77	0.77	0.7312775330396476	1.9087981389984634	0.395514303998425	0	0	0
361.506721416	3.0	Pos	marking	77	0.77	0.7312775330396476	1.9087981389984634	0.395514303998425	0	0	0
368.001386876	3.0	Pos	encoding	7	0.07	0.0	NaN	0.33321652300037385	0	0	0
375.007292879	3.0	Pos	marking	7	0.07	0.0	NaN	0.33321652300037385	1	0	0
382.001879887	3.0	Pos	encoding	98	0.98	0.7841409691629956	2.5585560580002493	0.4183386969998537	0	1	0
388.007542284	3.0	Pos	marking	98	0.98	0.7841409691629956	2.5585560580002493	0.4183386969998537	0	1	0
395.002352567	3.0	Pos	encoding	85	0.85	0.7312775330396476	1.961784846998853	0.37028888699933304	0	1	0
399.007789543	3.0	Pos	marking	85	0.85	0.7312775330396476	1.961784846998853	0.37028888699933304	0	1	0
402.0	6.0	break	break	NaN	NaN	NaN	NaN	NaN	NaN	NaN	NaN
411.001894792	3.0	Neg	encoding	-86	0.07	0.13656387665198239	2.4926671749999514	0.3160019490005652	0	0	0
415.008369577	3.0	Neg	marking	-86	0.07	0.13656387665198239	2.4926671749999514	0.3160019490005652	0	0	0
421.501867812	3.0	Neg	encoding	-34	0.33	0.30837004405286345	2.00903380499949	0.4095449029991869	0	0	0
425.008612573	3.0	Neg	marking	-34	0.33	0.30837004405286345	2.00903380499949	0.4095449029991869	0	0	0
432.501199839	3.0	Neg	encoding	54	0.77	0.0	NaN	0.3856325659999129	0	0	0
435.508873564	3.0	Neg	marking	54	0.77	0.0	NaN	0.3856325659999129	1	0	0
444.501976254	3.0	Neg	encoding	96	0.98	0.0	NaN	0.31364331699842296	0	0	0
451.008974832	3.0	Neg	marking	96	0.98	0.0	NaN	0.31364331699842296	1	0	0
457.501821826	3.0	Neg	encoding	-44	0.28	0.2687224669603524	2.5777658080005494	0.3878226970009564	0	0	0
461.509520151	3.0	Neg	marking	-44	0.28	0.2687224669603524	2.5777658080005494	0.3878226970009564	0	0	0
468.502328104	3.0	Neg	encoding	-58	0.21	0.2092511013215859	1.8949447300001339	0.32597814699875016	0	0	0
473.009830082	3.0	Neg	marking	-58	0.21	0.2092511013215859	1.8949447300001339	0.32597814699875016	0	0	0
479.502156697	3.0	Neg	encoding	14	0.57	0.6321585903083701	1.695892317000471	0.4784864809989813	0	0	0
483.010067793	3.0	Neg	marking	14	0.57	0.6321585903083701	1.695892317000471	0.4784864809989813	0	0	0
491.502060903	3.0	Neg	encoding	-10	0.45	0.394273127753304	1.595616616999905	0.3210774510007468	0	0	0
498.510315951	3.0	Neg	marking	-10	0.45	0.394273127753304	1.595616616999905	0.3210774510007468	0	0	0
506.001884933	3.0	Neg	encoding	-78	0.11	0.6387665198237885	1.6423064199989312	0.2915593319994514	0	1	0
510.511011213	3.0	Neg	marking	-78	0.11	0.6387665198237885	1.6423064199989312	0.2915593319994514	0	1	0
517.501342137	3.0	Neg	encoding	20	0.6	0.6651982378854625	1.7427613260006183	0.4562168920001568	0	0	0
522.511264208	3.0	Neg	marking	20	0.6	0.6651982378854625	1.7427613260006183	0.4562168920001568	0	0	0
528.501137699	3.0	Neg	encoding	-94	0.03	0.0	NaN	0.37017015399942466	0	0	0
533.011427639	3.0	Neg	marking	-94	0.03	0.0	NaN	0.37017015399942466	1	0	0
540.002479893	3.0	Neg	encoding	30	0.65	0.6718061674008811	2.576139737999256	0.3346873609989416	0	0	0
545.511891137	3.0	Neg	marking	30	0.65	0.6718061674008811	2.576139737999256	0.3346873609989416	0	0	0
555.001463114	3.0	Neg	encoding	-28	0.36	0.32819383259911894	2.0591796729986527	0.547346543000458	0	0	0
561.028910916	3.0	Neg	marking	-28	0.36	0.32819383259911894	2.0591796729986527	0.547346543000458	0	0	0
568.501613312	3.0	Neg	encoding	80	0.9	0.0	NaN	1.473552376999578	0	1	0
571.879167572	3.0	Neg	marking	80	0.9	0.0	NaN	1.473552376999578	0	1	0
581.501134693	3.0	Neg	encoding	70	0.85	0.76431718061674	1.9593211419996805	0.37469312399844057	0	0	0
585.513022137	3.0	Neg	marking	70	0.85	0.76431718061674	1.9593211419996805	0.37469312399844057	0	0	0
593.5018566	3.0	Neg	encoding	48	0.74	0.0	NaN	0.3724650700005441	0	0	0
597.013266541	3.0	Neg	marking	48	0.74	0.0	NaN	0.3724650700005441	1	0	0
